time,seconds_elapsed,z,y,x
1773573116585054200,0.22005419921875,0.0033288532868027687,0.0033288532868027687,-0.002929390873759985
1773573116605381000,0.240381103515625,0.0011983871227130294,0.005459319334477186,-0.0061250897124409676
1773573116615520300,0.250520263671875,0.0011983871227130294,0.004394086077809334,-0.0050598569214344025
1773573116625687000,0.26068701171875,0.0011983871227130294,0.0033288532868027687,-0.0061250897124409676
1773573116635815400,0.2708154296875,0.0011983871227130294,0.0033288532868027687,-0.0061250897124409676
1773573116645966600,0.280966552734375,0.0011983871227130294,0.004394086077809334,-0.0061250897124409676
1773573116656123000,0.291122802734375,0.00226362026296556,0.004394086077809334,-0.00719032296910882
1773573116666276000,0.301276123046875,0.0011983871227130294,0.004394086077809334,-0.00719032296910882
1773573116676424000,0.311423828125,0.0011983871227130294,0.006524552125483751,-0.00719032296910882
1773573116686575000,0.3215751953125,0.00226362026296556,0.006524552125483751,-0.0050598569214344025
1773573116696741000,0.3317412109375,0.0033288532868027687,0.005459319334477186,-0.00399462366476655
1773573116706898400,0.3418984375,0.0033288532868027687,0.005459319334477186,-0.00399462366476655
1773573116717021700,0.352021728515625,0.0033288532868027687,0.006524552125483751,-0.00399462366476655
1773573116727165000,0.3621650390625,0.0033288532868027687,0.006524552125483751,-0.0050598569214344025
1773573116737325300,0.3723251953125,0.0033288532868027687,0.006524552125483751,-0.00719032296910882
1773573116747475700,0.382475830078125,0.00226362026296556,0.008655018173158169,-0.0061250897124409676
1773573116757629400,0.39262939453125,0.00226362026296556,0.008655018173158169,-0.00719032296910882
1773573116767781000,0.402781005859375,0.004394086077809334,0.007589785382151604,-0.009320789016783237
1773573116777923800,0.412923828125,0.00226362026296556,0.008655018173158169,-0.008255556225776672
1773573116788072000,0.423072021484375,0.00226362026296556,0.008655018173158169,-0.0061250897124409676
1773573116798214700,0.433214599609375,0.00226362026296556,0.008655018173158169,-0.00399462366476655
1773573116808360400,0.4433603515625,0.00226362026296556,0.005459319334477186,-0.002929390873759985
1773573116818527700,0.45352783203125,0.0001331541279796511,0.004394086077809334,-0.0007989247678779066
1773573116828682200,0.46368212890625,0.0011983871227130294,0.005459319334477186,-0.0018641578499227762
1773573116838829800,0.473829833984375,0.0011983871227130294,0.004394086077809334,-0.0007989247678779066
1773573116848981500,0.4839814453125,0.0001331541279796511,0.0011983871227130294,0.0002663082559593022
1773573116859132000,0.4941318359375,0.0001331541279796511,-0.0009320789249613881,-0.0007989247678779066
1773573116869283000,0.504282958984375,0.0011983871227130294,0.0001331541279796511,0.0002663082559593022
1773573116879428600,0.5144287109375,0.0001331541279796511,0.0011983871227130294,0.0002663082559593022
1773573116889577500,0.524577392578125,0.0001331541279796511,0.00226362026296556,0.00133154122158885
1773573116899744800,0.534744873046875,0.0001331541279796511,0.0011983871227130294,0.00133154122158885
1773573116909901000,0.544901123046875,0.0011983871227130294,0.0011983871227130294,-0.0007989247678779066
1773573116920034800,0.555034912109375,0.0001331541279796511,0.0033288532868027687,-0.0018641578499227762
1773573116930182000,0.565181884765625,0.0011983871227130294,0.0011983871227130294,-0.002929390873759985
1773573116940336600,0.575336669921875,0.0001331541279796511,0.0011983871227130294,0.0002663082559593022
1773573116950487000,0.585487060546875,0.0011983871227130294,0.0033288532868027687,0.00133154122158885
1773573116960639500,0.595639404296875,0.0011983871227130294,0.00226362026296556,0.0002663082559593022
1773573116970790000,0.605789794921875,0.0001331541279796511,-0.0009320789249613881,0.0002663082559593022
1773573116980933600,0.61593359375,0.0011983871227130294,-0.0009320789249613881,-0.0007989247678779066
1773573116991083300,0.626083251953125,0.00226362026296556,0.0033288532868027687,-0.0007989247678779066
1773573117001223200,0.63622314453125,0.0011983871227130294,0.004394086077809334,-0.0018641578499227762
1773573117011371800,0.646371826171875,0.0011983871227130294,0.0011983871227130294,-0.002929390873759985
1773573117021542700,0.656542724609375,0.00226362026296556,0.00226362026296556,-0.00399462366476655
1773573117031693800,0.66669384765625,0.00226362026296556,0.004394086077809334,-0.00719032296910882
1773573117041844500,0.676844482421875,0.00226362026296556,0.00226362026296556,-0.00719032296910882
1773573117051995400,0.686995361328125,0.0011983871227130294,0.00226362026296556,-0.00399462366476655
1773573117062153500,0.697153564453125,0.0011983871227130294,0.004394086077809334,-0.002929390873759985
1773573117072305000,0.707304931640625,0.0033288532868027687,0.004394086077809334,-0.00399462366476655
1773573117082460200,0.717460205078125,0.00226362026296556,0.0033288532868027687,-0.00399462366476655
1773573117092612400,0.7276123046875,0.00226362026296556,0.0033288532868027687,-0.002929390873759985
1773573117102762800,0.7377626953125,0.0011983871227130294,0.0033288532868027687,-0.0018641578499227762
1773573117112914700,0.747914794921875,-0.0009320789249613881,0.0033288532868027687,-0.002929390873759985
1773573117123042800,0.758042724609375,0.0001331541279796511,0.00226362026296556,-0.0007989247678779066
1773573117133192200,0.768192138671875,0.0001331541279796511,0.0001331541279796511,0.00133154122158885
1773573117143349000,0.778348876953125,-0.0009320789249613881,-0.0009320789249613881,0.0034620072692632675
1773573117153499400,0.78849951171875,-0.0009320789249613881,-0.0030625448562204838,0.00452724052593112
1773573117163650000,0.798650146484375,-0.001997311832383275,-0.0030625448562204838,0.005592473316937685
1773573117173800400,0.808800537109375,-0.001997311832383275,0.0001331541279796511,0.00452724052593112
1773573117183949600,0.818949462890625,-0.001997311832383275,-0.0009320789249613881,0.005592473316937685
1773573117194099700,0.829099609375,-0.0009320789249613881,0.0001331541279796511,0.006657706573605537
1773573117204264000,0.839263916015625,-0.0009320789249613881,0.00226362026296556,0.0034620072692632675
1773573117214415600,0.84941552734375,0.0001331541279796511,0.004394086077809334,-0.0007989247678779066
1773573117224548600,0.859548583984375,0.0011983871227130294,0.006524552125483751,-0.002929390873759985
1773573117234698200,0.8696982421875,0.0001331541279796511,0.006524552125483751,-0.0018641578499227762
1773573117244841000,0.879841064453125,0.0001331541279796511,0.006524552125483751,-0.0007989247678779066
1773573117254993400,0.889993408203125,0.0011983871227130294,0.004394086077809334,-0.0007989247678779066
1773573117265148200,0.900148193359375,0.0011983871227130294,0.0033288532868027687,0.0002663082559593022
1773573117275279000,0.910279052734375,0.0001331541279796511,0.00226362026296556,0.00133154122158885
1773573117295578400,0.930578369140625,-0.0009320789249613881,-0.0009320789249613881,0.009853405877947807
1773573117305741300,0.9407412109375,0.0011983871227130294,-0.0030625448562204838,0.013049104250967503
1773573117315892200,0.950892333984375,0.0011983871227130294,-0.0030625448562204838,0.008788172155618668
1773573117326054100,0.96105419921875,0.0001331541279796511,-0.001997311832383275,0.006657706573605537
1773573117336206300,0.971206298828125,-0.0009320789249613881,-0.0030625448562204838,0.008788172155618668
1773573117346356000,0.98135595703125,-0.0009320789249613881,-0.004127778112888336,0.010918638668954372
1773573117356508000,0.9915078125,-0.001997311832383275,-0.0009320789249613881,0.010918638668954372
1773573117366654000,1.001654052734375,-0.0009320789249613881,-0.001997311832383275,0.006657706573605537
1773573117376805000,1.01180517578125,-0.0009320789249613881,-0.006258244160562754,0.0077229393646121025
1773573117386953200,1.021953125,-0.0009320789249613881,-0.0030625448562204838,0.008788172155618668
1773573117397104000,1.032104248046875,-0.001997311832383275,-0.001997311832383275,0.005592473316937685
1773573117407251000,1.0422509765625,-0.0009320789249613881,-0.007323476951569319,0.00133154122158885
1773573117417401600,1.052401611328125,0.0001331541279796511,-0.005193010903894901,0.0023967742454260588
1773573117427557400,1.062557373046875,0.0001331541279796511,0.0033288532868027687,0.008788172155618668
1773573117437708300,1.072708251953125,-0.001997311832383275,0.008655018173158169,0.011983871459960938
1773573117447843000,1.082843017578125,-0.0009320789249613881,0.0011983871227130294,0.005592473316937685
1773573117457992400,1.092992431640625,0.0001331541279796511,0.0001331541279796511,0.0002663082559593022
1773573117468182500,1.1031826171875,0.00226362026296556,0.007589785382151604,0.00133154122158885
1773573117478336000,1.1133359375,0.0011983871227130294,0.0033288532868027687,0.0023967742454260588
1773573117488447700,1.12344775390625,0.0011983871227130294,-0.005193010903894901,0.0034620072692632675
1773573117498597000,1.13359716796875,-0.0009320789249613881,0.004394086077809334,0.008788172155618668
1773573117508776000,1.14377587890625,-0.0009320789249613881,0.006524552125483751,0.009853405877947807
1773573117518928400,1.153928466796875,-0.0009320789249613881,-0.008388710208237171,0.008788172155618668
1773573117529081600,1.16408154296875,0.0001331541279796511,-0.011584409512579441,0.009853405877947807
1773573117539234000,1.174234130859375,-0.0009320789249613881,-0.005193010903894901,0.010918638668954372
1773573117549382700,1.184382568359375,-0.001997311832383275,-0.010519175790250301,0.014114337973296642
1773573117559534600,1.19453466796875,-0.0030625448562204838,-0.017975807189941406,0.016244804486632347
1773573117569683200,1.20468310546875,-0.001997311832383275,-0.020106272771954536,0.017310036346316338
1773573117579835000,1.2148349609375,-0.004127778112888336,-0.020106272771954536,0.018375270068645477
1773573117589983500,1.2249833984375,-0.004127778112888336,-0.024367205798625946,0.019440501928329468
1773573117600135000,1.235135009765625,-0.0030625448562204838,-0.025432437658309937,0.019440501928329468
1773573117610283300,1.245283203125,-0.001997311832383275,-0.019041040912270546,0.016244804486632347
1773573117620434200,1.25543408203125,-0.0009320789249613881,-0.014780107885599136,0.010918638668954372
1773573117630585600,1.265585693359375,-0.0009320789249613881,-0.010519175790250301,0.009853405877947807
1773573117640736800,1.27573681640625,0.0001331541279796511,-0.006258244160562754,0.006657706573605537
1773573117650861600,1.285861572265625,0.0001331541279796511,-0.004127778112888336,0.0034620072692632675
1773573117661010200,1.29601025390625,-0.0030625448562204838,-0.0030625448562204838,0.0034620072692632675
1773573117671171600,1.306171630859375,-0.0009320789249613881,-0.004127778112888336,0.00452724052593112
1773573117681321200,1.3163212890625,0.0001331541279796511,-0.0009320789249613881,0.0034620072692632675
1773573117691472400,1.326472412109375,-0.0009320789249613881,-0.0009320789249613881,0.00133154122158885
1773573117701622300,1.336622314453125,0.0001331541279796511,-0.0030625448562204838,0.00133154122158885
1773573117711772000,1.34677197265625,0.0011983871227130294,-0.0009320789249613881,-0.0007989247678779066
1773573117721921800,1.356921875,0.0011983871227130294,0.0033288532868027687,-0.00719032296910882
1773573117732074500,1.367074462890625,0.0001331541279796511,0.0033288532868027687,-0.0061250897124409676
1773573117742224600,1.377224609375,0.0001331541279796511,0.00226362026296556,-0.00399462366476655
1773573117752394200,1.387394287109375,0.0011983871227130294,0.004394086077809334,-0.0050598569214344025
1773573117762546400,1.39754638671875,0.0001331541279796511,0.0033288532868027687,-0.0061250897124409676
1773573117772675000,1.407675048828125,-0.0009320789249613881,0.0011983871227130294,-0.0018641578499227762
1773573117782825000,1.417824951171875,0.0001331541279796511,-0.001997311832383275,0.00133154122158885
1773573117792981000,1.42798095703125,0.0011983871227130294,0.0011983871227130294,0.0002663082559593022
1773573117803131400,1.43813134765625,0.0001331541279796511,0.0033288532868027687,0.00133154122158885
1773573117813279000,1.448279052734375,0.0001331541279796511,0.0001331541279796511,0.0023967742454260588
1773573117823429000,1.45842919921875,-0.0009320789249613881,0.00226362026296556,0.0002663082559593022
1773573117833583400,1.468583251953125,0.0001331541279796511,0.0033288532868027687,-0.0018641578499227762
1773573117843734000,1.478734130859375,0.0001331541279796511,0.0001331541279796511,-0.0018641578499227762
1773573117853893400,1.488893310546875,0.0011983871227130294,-0.0009320789249613881,-0.0018641578499227762
1773573117864045000,1.499045166015625,0.0001331541279796511,-0.0030625448562204838,0.00133154122158885
1773573117874183200,1.50918310546875,0.0011983871227130294,-0.0030625448562204838,0.0023967742454260588
1773573117884333300,1.519333251953125,0.0011983871227130294,-0.0030625448562204838,0.00133154122158885
1773573117894482700,1.529482666015625,0.0001331541279796511,0.0001331541279796511,0.0002663082559593022
1773573117904632600,1.539632568359375,-0.0009320789249613881,0.0033288532868027687,-0.0007989247678779066
1773573117914786300,1.549786376953125,-0.0009320789249613881,0.0001331541279796511,0.0002663082559593022
1773573117924936700,1.559936767578125,0.0001331541279796511,-0.0030625448562204838,-0.0018641578499227762
1773573117935098400,1.570098388671875,0.0001331541279796511,0.0001331541279796511,-0.0018641578499227762
1773573117945250000,1.58025,0.0001331541279796511,-0.0030625448562204838,-0.0007989247678779066
1773573117955386400,1.590386474609375,0.0001331541279796511,-0.007323476951569319,-0.0007989247678779066
1773573117965536300,1.600536376953125,0.0001331541279796511,-0.005193010903894901,0.0002663082559593022
1773573117975688000,1.61068798828125,0.0011983871227130294,-0.0030625448562204838,0.0023967742454260588
1773573117985838000,1.620838134765625,0.0011983871227130294,-0.0030625448562204838,0.0002663082559593022
1773573117995987500,1.630987548828125,0.0001331541279796511,-0.0009320789249613881,-0.002929390873759985
1773573118006137600,1.6411376953125,0.0001331541279796511,0.0001331541279796511,-0.0018641578499227762
1773573118016288300,1.651288330078125,0.0011983871227130294,0.0011983871227130294,-0.0018641578499227762
1773573118026438400,1.6614384765625,0.0011983871227130294,0.00226362026296556,-0.002929390873759985
1773573118036590300,1.67159033203125,0.0001331541279796511,0.0011983871227130294,-0.00399462366476655
1773573118046740700,1.68174072265625,0.00226362026296556,0.0011983871227130294,-0.002929390873759985
1773573118056904400,1.691904541015625,0.00226362026296556,0.0033288532868027687,-0.002929390873759985
1773573118067055900,1.702055908203125,0.0011983871227130294,0.00226362026296556,-0.0050598569214344025
1773573118077192000,1.71219189453125,0.0011983871227130294,0.004394086077809334,-0.00399462366476655
1773573118087342000,1.722342041015625,0.0001331541279796511,0.004394086077809334,-0.0050598569214344025
1773573118097492200,1.7324921875,0.0011983871227130294,0.004394086077809334,-0.00719032296910882
1773573118107642400,1.742642333984375,0.0001331541279796511,0.00226362026296556,-0.0061250897124409676
1773573118117781000,1.752781005859375,0.0001331541279796511,0.0011983871227130294,-0.0050598569214344025
1773573118127930000,1.76293017578125,0.0011983871227130294,0.0001331541279796511,-0.0050598569214344025
1773573118138096000,1.77309619140625,0.00226362026296556,-0.0009320789249613881,-0.0050598569214344025
1773573118148246800,1.783246826171875,0.0001331541279796511,-0.001997311832383275,-0.0061250897124409676
1773573118158412500,1.79341259765625,0.0001331541279796511,-0.0009320789249613881,-0.00399462366476655
1773573118168564700,1.803564697265625,0.0001331541279796511,0.00226362026296556,-0.002929390873759985
1773573118178707200,1.813707275390625,-0.0009320789249613881,0.0011983871227130294,-0.0007989247678779066
1773573118188858400,1.8238583984375,-0.0009320789249613881,-0.001997311832383275,-0.00399462366476655
1773573118199014700,1.8340146484375,0.0001331541279796511,-0.004127778112888336,-0.0050598569214344025
1773573118209166300,1.844166259765625,0.0001331541279796511,-0.005193010903894901,-0.0018641578499227762
1773573118219306500,1.854306396484375,0.0001331541279796511,-0.004127778112888336,-0.0018641578499227762
1773573118229457200,1.86445703125,0.0011983871227130294,-0.0030625448562204838,-0.0050598569214344025
1773573118239604500,1.8746044921875,-0.0009320789249613881,-0.0030625448562204838,-0.002929390873759985
1773573118249754600,1.884754638671875,0.0011983871227130294,0.0001331541279796511,-0.002929390873759985
1773573118259917300,1.894917236328125,0.0011983871227130294,0.00226362026296556,-0.0061250897124409676
1773573118270068700,1.90506884765625,0.0001331541279796511,0.00226362026296556,-0.008255556225776672
1773573118280220400,1.915220458984375,0.0001331541279796511,0.0011983871227130294,-0.0050598569214344025
1773573118290372000,1.9253720703125,0.0011983871227130294,0.0011983871227130294,-0.00399462366476655
1773573118300504800,1.9355048828125,0.0011983871227130294,0.004394086077809334,-0.00399462366476655
1773573118310654200,1.945654296875,0.0001331541279796511,0.00226362026296556,-0.0050598569214344025
1773573118320811800,1.955811767578125,0.0011983871227130294,0.0011983871227130294,-0.0050598569214344025
1773573118330962200,1.965962158203125,0.00226362026296556,0.004394086077809334,-0.00719032296910882
1773573118341106000,1.97610595703125,0.0011983871227130294,0.006524552125483751,-0.00719032296910882
1773573118351255600,1.986255615234375,0.0011983871227130294,0.005459319334477186,-0.008255556225776672
1773573118361425400,1.99642529296875,0.0001331541279796511,0.004394086077809334,-0.008255556225776672
1773573118371577000,2.0065771484375,0.0001331541279796511,0.0033288532868027687,-0.00719032296910882
1773573118381708000,2.0167080078125,0.0011983871227130294,0.00226362026296556,-0.0061250897124409676
1773573118391857700,2.026857666015625,0.0011983871227130294,0.00226362026296556,-0.0050598569214344025
1773573118402010400,2.03701025390625,0.0011983871227130294,0.00226362026296556,-0.002929390873759985
1773573118412160300,2.04716015625,0.0001331541279796511,0.0033288532868027687,-0.002929390873759985
1773573118422312200,2.057312255859375,0.0001331541279796511,0.0033288532868027687,-0.0050598569214344025
1773573118432462300,2.06746240234375,0.0001331541279796511,0.0033288532868027687,-0.0050598569214344025
1773573118442612000,2.077612060546875,0.0001331541279796511,0.00226362026296556,-0.00399462366476655
1773573118452762000,2.08776220703125,0.0011983871227130294,0.0011983871227130294,-0.002929390873759985
1773573118462900000,2.09789990234375,0.0011983871227130294,0.00226362026296556,-0.0018641578499227762
1773573118473048800,2.108048828125,0.0001331541279796511,0.0001331541279796511,-0.0007989247678779066
1773573118483228200,2.118228271484375,0.00226362026296556,-0.0009320789249613881,0.0002663082559593022
1773573118493380000,2.128380126953125,0.0001331541279796511,0.00226362026296556,-0.0007989247678779066
1773573118503517000,2.138516845703125,0.0011983871227130294,-0.0009320789249613881,-0.00399462366476655
1773573118513667300,2.148667236328125,0.0011983871227130294,0.0001331541279796511,-0.0018641578499227762
1773573118523817200,2.158817138671875,0.0001331541279796511,0.0033288532868027687,-0.002929390873759985
1773573118533967600,2.168967529296875,0.0001331541279796511,0.0033288532868027687,-0.002929390873759985
1773573118544119000,2.179119140625,0.0001331541279796511,0.0011983871227130294,0.0002663082559593022
1773573118554269700,2.189269775390625,0.0011983871227130294,0.00226362026296556,0.0002663082559593022
1773573118564439800,2.199439697265625,0.0011983871227130294,0.00226362026296556,-0.002929390873759985
1773573118574592300,2.20959228515625,0.0001331541279796511,0.0011983871227130294,-0.00399462366476655
1773573118584719400,2.21971923828125,0.0001331541279796511,0.00226362026296556,-0.0018641578499227762
1773573118594869200,2.229869140625,0.0011983871227130294,0.0033288532868027687,-0.002929390873759985
1773573118605022200,2.240022216796875,0.0011983871227130294,0.00226362026296556,-0.00399462366476655
1773573118615172600,2.250172607421875,0.0011983871227130294,0.00226362026296556,-0.002929390873759985
1773573118625323000,2.260322998046875,0.0001331541279796511,0.00226362026296556,-0.002929390873759985
1773573118635473400,2.270473388671875,0.0001331541279796511,-0.001997311832383275,-0.002929390873759985
1773573118645622800,2.280622802734375,-0.0009320789249613881,0.00226362026296556,-0.00399462366476655
1773573118655773000,2.29077294921875,0.0001331541279796511,0.0033288532868027687,-0.0007989247678779066
1773573118665910500,2.30091064453125,0.0001331541279796511,-0.001997311832383275,-0.0007989247678779066
1773573118676059400,2.311059326171875,0.00226362026296556,-0.001997311832383275,-0.002929390873759985
1773573118686247200,2.3212470703125,0.0001331541279796511,0.00226362026296556,-0.002929390873759985
1773573118696400000,2.33139990234375,0.0011983871227130294,-0.0009320789249613881,-0.002929390873759985
1773573118706543000,2.341543212890625,0.0011983871227130294,-0.0009320789249613881,-0.0018641578499227762
1773573118716695000,2.351695068359375,0.0001331541279796511,0.004394086077809334,-0.00399462366476655
1773573118726848300,2.36184814453125,0.0001331541279796511,0.0001331541279796511,-0.0018641578499227762
1773573118737000400,2.37200048828125,0.0011983871227130294,-0.001997311832383275,-0.0018641578499227762
1773573118747145000,2.38214501953125,0.0001331541279796511,0.0033288532868027687,-0.0018641578499227762
1773573118757296000,2.392296142578125,0.0001331541279796511,0.004394086077809334,-0.0007989247678779066
1773573118767446000,2.402446044921875,0.0001331541279796511,-0.0009320789249613881,-0.0018641578499227762
1773573118777597000,2.412596923828125,-0.0009320789249613881,0.0001331541279796511,-0.002929390873759985
1773573118787748000,2.422748046875,0.0011983871227130294,0.00226362026296556,-0.002929390873759985
1773573118797899300,2.432899169921875,0.0011983871227130294,0.0001331541279796511,-0.002929390873759985
1773573118808051700,2.4430517578125,0.0001331541279796511,-0.001997311832383275,-0.002929390873759985
1773573118818203000,2.453202880859375,0.0011983871227130294,0.0011983871227130294,-0.0050598569214344025
1773573118828349400,2.463349365234375,0.0011983871227130294,0.00226362026296556,-0.00399462366476655
1773573118838500000,2.4735,0.0011983871227130294,0.00226362026296556,-0.00399462366476655
1773573118848654800,2.48365478515625,0.00226362026296556,0.0033288532868027687,-0.00399462366476655
1773573118858806000,2.493805908203125,0.0001331541279796511,0.0033288532868027687,-0.002929390873759985
1773573118868956400,2.503956298828125,0.0011983871227130294,0.0011983871227130294,-0.0018641578499227762
1773573118879107600,2.514107666015625,0.0011983871227130294,0.00226362026296556,-0.002929390873759985
1773573118889273600,2.524273681640625,0.0011983871227130294,0.0001331541279796511,-0.002929390873759985
1773573118899426300,2.53442626953125,0.0011983871227130294,0.0001331541279796511,-0.0018641578499227762
1773573118909542700,2.544542724609375,0.00226362026296556,0.0001331541279796511,-0.0018641578499227762
1773573118919691500,2.55469140625,0.00226362026296556,0.00226362026296556,-0.0018641578499227762
1773573118929843500,2.564843505859375,0.00226362026296556,0.00226362026296556,-0.002929390873759985
1773573118939992800,2.574992919921875,0.0011983871227130294,0.0033288532868027687,-0.002929390873759985
1773573118950138000,2.58513818359375,0.0011983871227130294,0.0033288532868027687,-0.0018641578499227762
1773573118960287000,2.595286865234375,0.0011983871227130294,0.0033288532868027687,-0.0018641578499227762
1773573118970444500,2.605444580078125,0.0011983871227130294,0.00226362026296556,-0.002929390873759985
1773573118980594200,2.61559423828125,0.0011983871227130294,0.0011983871227130294,-0.002929390873759985
1773573118990755000,2.625755126953125,0.0011983871227130294,0.0011983871227130294,-0.0018641578499227762
1773573119000906000,2.635906005859375,0.0011983871227130294,0.00226362026296556,-0.002929390873759985
1773573119011047000,2.646046875,0.0011983871227130294,0.0011983871227130294,-0.002929390873759985
1773573119021196800,2.65619677734375,0.0011983871227130294,0.00226362026296556,-0.0018641578499227762
1773573119031346200,2.66634619140625,0.0011983871227130294,0.0011983871227130294,-0.0018641578499227762
1773573119041496000,2.67649609375,0.0011983871227130294,0.0001331541279796511,-0.0007989247678779066
1773573119051648500,2.6866484375,0.0001331541279796511,0.0001331541279796511,0.0002663082559593022
1773573119061798700,2.696798583984375,0.0001331541279796511,-0.001997311832383275,0.00133154122158885
1773573119071954000,2.706953857421875,0.00226362026296556,-0.004127778112888336,0.00133154122158885
1773573119082104600,2.7171044921875,0.0011983871227130294,-0.001997311832383275,0.00133154122158885
1773573119092253700,2.727253662109375,0.0001331541279796511,-0.001997311832383275,0.00133154122158885
1773573119102404000,2.737404052734375,-0.0009320789249613881,-0.001997311832383275,-0.0007989247678779066
1773573119112559600,2.7475595703125,0.0001331541279796511,-0.001997311832383275,-0.0018641578499227762
1773573119122710500,2.75771044921875,0.0001331541279796511,0.0001331541279796511,-0.0018641578499227762
1773573119132868900,2.767868896484375,0.0001331541279796511,0.00226362026296556,-0.0018641578499227762
1773573119143020500,2.7780205078125,0.0001331541279796511,0.00226362026296556,-0.0007989247678779066
1773573119153163300,2.788163330078125,0.0011983871227130294,-0.0009320789249613881,0.00133154122158885
1773573119163314000,2.79831396484375,0.0011983871227130294,-0.0030625448562204838,0.00133154122158885
1773573119173457000,2.808456787109375,0.0001331541279796511,-0.001997311832383275,0.0023967742454260588
1773573119183606800,2.818606689453125,0.0001331541279796511,-0.004127778112888336,0.00133154122158885
1773573119193762800,2.8287626953125,-0.0009320789249613881,-0.005193010903894901,0.00133154122158885
1773573119203913500,2.83891357421875,-0.0009320789249613881,-0.0030625448562204838,0.00133154122158885
1773573119214057500,2.849057373046875,-0.0009320789249613881,-0.0030625448562204838,0.00133154122158885
1773573119224207400,2.859207275390625,0.0001331541279796511,-0.0030625448562204838,0.0002663082559593022
1773573119234369000,2.869369140625,0.0011983871227130294,-0.001997311832383275,0.00133154122158885
1773573119244520200,2.879520263671875,0.0001331541279796511,0.0001331541279796511,0.00133154122158885
1773573119254660900,2.889660888671875,0.0001331541279796511,-0.0009320789249613881,0.00133154122158885
1773573119264811000,2.89981103515625,0.0001331541279796511,-0.0009320789249613881,0.0002663082559593022
1773573119274966300,2.90996630859375,-0.0009320789249613881,-0.0009320789249613881,0.0002663082559593022
1773573119285117000,2.920116943359375,0.0001331541279796511,-0.0009320789249613881,-0.0007989247678779066
1773573119295265500,2.930265625,0.0001331541279796511,-0.0009320789249613881,-0.0007989247678779066
1773573119305416200,2.940416259765625,0.0001331541279796511,0.0001331541279796511,-0.0018641578499227762
1773573119315565000,2.95056494140625,0.0001331541279796511,0.0001331541279796511,0.0002663082559593022
1773573119325715500,2.960715576171875,0.0011983871227130294,-0.001997311832383275,0.00133154122158885
1773573119335884300,2.97088427734375,0.0001331541279796511,-0.0009320789249613881,0.00133154122158885
1773573119346036500,2.981036376953125,0.0001331541279796511,0.0001331541279796511,0.00133154122158885
1773573119356177200,2.99117724609375,0.0001331541279796511,-0.0009320789249613881,0.0023967742454260588
1773573119366328300,3.001328369140625,0.0001331541279796511,-0.0030625448562204838,0.0023967742454260588
1773573119376471600,3.011471435546875,0.0001331541279796511,0.0001331541279796511,0.0002663082559593022
1773573119386621700,3.02162158203125,0.0001331541279796511,-0.0009320789249613881,0.0002663082559593022
1773573119396770800,3.031770751953125,0.0011983871227130294,-0.004127778112888336,0.0002663082559593022
1773573119406920700,3.041920654296875,0.0001331541279796511,-0.0009320789249613881,0.0002663082559593022
1773573119417069300,3.0520693359375,-0.0009320789249613881,-0.0009320789249613881,-0.0007989247678779066
1773573119427219000,3.062218994140625,0.0011983871227130294,-0.001997311832383275,-0.0007989247678779066
1773573119437388000,3.072387939453125,0.0001331541279796511,-0.0009320789249613881,-0.0007989247678779066
1773573119447539700,3.082539794921875,0.0001331541279796511,0.0001331541279796511,0.0002663082559593022
1773573119457672000,3.092671875,0.0001331541279796511,-0.001997311832383275,-0.0018641578499227762
1773573119467821800,3.10282177734375,0.0011983871227130294,-0.0009320789249613881,-0.0018641578499227762
1773573119477978600,3.112978515625,-0.0009320789249613881,0.00226362026296556,-0.002929390873759985
1773573119488129300,3.12312939453125,0.0011983871227130294,0.0011983871227130294,-0.002929390873759985
1773573119498273300,3.133273193359375,0.0011983871227130294,0.0011983871227130294,-0.0018641578499227762
1773573119508423200,3.143423095703125,-0.0009320789249613881,0.0033288532868027687,-0.0007989247678779066
1773573119518574000,3.153573974609375,-0.0009320789249613881,0.00226362026296556,-0.0007989247678779066
1773573119528724000,3.163723876953125,0.0001331541279796511,0.0011983871227130294,-0.0007989247678779066
1773573119538842400,3.17384228515625,0.0001331541279796511,0.0011983871227130294,-0.0018641578499227762
1773573119559176000,3.194176025390625,0.0001331541279796511,-0.0009320789249613881,0.0002663082559593022
1773573119569329200,3.2043291015625,-0.0009320789249613881,0.0011983871227130294,0.0002663082559593022
1773573119579477500,3.2144775390625,-0.0009320789249613881,0.0001331541279796511,-0.0007989247678779066
1773573119589630200,3.224630126953125,0.0001331541279796511,0.0001331541279796511,-0.0007989247678779066
1773573119599767300,3.234767333984375,0.0011983871227130294,0.0011983871227130294,-0.0018641578499227762
1773573119609918500,3.24491845703125,0.0011983871227130294,0.0001331541279796511,-0.002929390873759985
1773573119620083200,3.255083251953125,0.0011983871227130294,0.00226362026296556,-0.0018641578499227762
1773573119630235600,3.265235595703125,0.0001331541279796511,0.00226362026296556,-0.0018641578499227762
1773573119640401400,3.2754013671875,0.0001331541279796511,0.0001331541279796511,-0.002929390873759985
1773573119650555100,3.28555517578125,0.0011983871227130294,-0.0009320789249613881,-0.002929390873759985
1773573119660683800,3.295683837890625,0.0001331541279796511,0.00226362026296556,0.0002663082559593022
1773573119670835200,3.305835205078125,0.0001331541279796511,0.0001331541279796511,-0.0007989247678779066
1773573119681004000,3.316004150390625,0.0011983871227130294,-0.0009320789249613881,-0.0018641578499227762
1773573119691157200,3.3261572265625,0.0011983871227130294,-0.0009320789249613881,-0.0018641578499227762
1773573119701284000,3.3362841796875,0.0001331541279796511,0.0001331541279796511,-0.0018641578499227762
1773573119711434500,3.3464345703125,0.0001331541279796511,0.0001331541279796511,-0.0007989247678779066
1773573119721591000,3.356591064453125,0.0001331541279796511,0.0011983871227130294,-0.0007989247678779066
1773573119731742200,3.3667421875,0.0011983871227130294,0.0011983871227130294,-0.0018641578499227762
1773573119741902300,3.37690234375,0.0011983871227130294,0.0001331541279796511,-0.0007989247678779066
1773573119752054300,3.38705419921875,0.0011983871227130294,0.0001331541279796511,-0.0007989247678779066
1773573119762191600,3.397191650390625,0.0011983871227130294,0.00226362026296556,-0.0007989247678779066
1773573119772342300,3.40734228515625,0.0011983871227130294,0.0001331541279796511,-0.0007989247678779066
1773573119782489900,3.41748974609375,0.0001331541279796511,-0.0009320789249613881,-0.0018641578499227762
1773573119792640000,3.427639892578125,0.0001331541279796511,0.0001331541279796511,-0.0018641578499227762
1773573119802794200,3.437794189453125,-0.0009320789249613881,0.0011983871227130294,-0.0018641578499227762
1773573119812945000,3.44794482421875,-0.0009320789249613881,0.0001331541279796511,-0.0007989247678779066
1773573119823091500,3.458091552734375,0.0001331541279796511,0.00226362026296556,0.0002663082559593022
1773573119833241600,3.46824169921875,0.0001331541279796511,0.0011983871227130294,-0.0018641578499227762
1773573119843413000,3.4784130859375,-0.001997311832383275,0.0001331541279796511,-0.0007989247678779066
1773573119853565200,3.488565185546875,0.0001331541279796511,0.0001331541279796511,0.00133154122158885
1773573119863711200,3.498711181640625,0.0011983871227130294,0.0001331541279796511,0.0002663082559593022
1773573119873863000,3.50886279296875,0.0011983871227130294,-0.0009320789249613881,-0.0007989247678779066
1773573119884010500,3.519010498046875,0.0001331541279796511,0.0011983871227130294,-0.0018641578499227762
1773573119894162000,3.529161865234375,0.0011983871227130294,0.0001331541279796511,-0.0007989247678779066
1773573119904310300,3.539310302734375,0.0011983871227130294,0.0001331541279796511,-0.0007989247678779066
1773573119914461400,3.54946142578125,0.0011983871227130294,0.0011983871227130294,-0.0007989247678779066
1773573119924617700,3.55961767578125,0.0011983871227130294,0.0011983871227130294,0.0002663082559593022
1773573119934769200,3.56976904296875,0.0011983871227130294,0.0011983871227130294,-0.0018641578499227762
1773573119944919300,3.579919189453125,0.0001331541279796511,0.0011983871227130294,-0.0018641578499227762
1773573119955070700,3.59007080078125,0.0011983871227130294,0.0011983871227130294,-0.0007989247678779066
1773573119965184800,3.600184814453125,0.0001331541279796511,-0.0009320789249613881,-0.0007989247678779066
1773573119975332400,3.610332275390625,0.0001331541279796511,0.0001331541279796511,-0.0018641578499227762
1773573119985488600,3.620488525390625,0.0001331541279796511,0.0011983871227130294,-0.002929390873759985
1773573119995637200,3.63063720703125,0.0001331541279796511,0.0001331541279796511,-0.0018641578499227762
1773573120005817900,3.64081787109375,0.0001331541279796511,0.0001331541279796511,-0.0018641578499227762
1773573120015969800,3.6509697265625,0.0001331541279796511,0.00226362026296556,-0.002929390873759985
1773573120026123300,3.661123291015625,0.0011983871227130294,0.0001331541279796511,-0.0018641578499227762
1773573120036275200,3.671275146484375,0.0001331541279796511,0.0011983871227130294,-0.0018641578499227762
1773573120046420200,3.681420166015625,0.0001331541279796511,0.0001331541279796511,-0.0018641578499227762
1773573120056571600,3.691571533203125,0.0001331541279796511,0.0001331541279796511,-0.0018641578499227762
1773573120066723600,3.7017236328125,0.0001331541279796511,-0.0009320789249613881,-0.0007989247678779066
1773573120076874800,3.711874755859375,0.0001331541279796511,-0.0009320789249613881,0.0002663082559593022
1773573120087022000,3.72202197265625,-0.0009320789249613881,-0.0009320789249613881,-0.0007989247678779066
1773573120097173000,3.732173095703125,0.0001331541279796511,-0.0009320789249613881,-0.0007989247678779066
1773573120107319600,3.742319580078125,0.0011983871227130294,-0.0009320789249613881,-0.0007989247678779066
1773573120117470000,3.752469970703125,0.0011983871227130294,0.0001331541279796511,-0.0007989247678779066
1773573120127631000,3.762631103515625,-0.0009320789249613881,-0.0009320789249613881,-0.0007989247678779066
1773573120137782500,3.772782470703125,0.0001331541279796511,-0.0009320789249613881,-0.0007989247678779066
1773573120147917800,3.782917724609375,0.0011983871227130294,0.0001331541279796511,-0.002929390873759985
1773573120158067700,3.793067626953125,0.0011983871227130294,0.0011983871227130294,-0.002929390873759985
1773573120168214300,3.80321435546875,0.0011983871227130294,0.0011983871227130294,-0.0018641578499227762
1773573120178364000,3.813364013671875,0.0001331541279796511,0.0011983871227130294,-0.0018641578499227762
1773573120188515800,3.823515869140625,0.0001331541279796511,0.0033288532868027687,-0.0018641578499227762
1773573120198665500,3.83366552734375,-0.0009320789249613881,0.0011983871227130294,-0.0018641578499227762
1773573120208821500,3.843821533203125,0.0001331541279796511,0.0001331541279796511,-0.0018641578499227762
1773573120218972000,3.853971923828125,0.0001331541279796511,0.0001331541279796511,-0.0007989247678779066
1773573120229121800,3.864121826171875,0.0011983871227130294,0.0001331541279796511,-0.0018641578499227762
1773573120239272200,3.874272216796875,0.0011983871227130294,0.0011983871227130294,-0.0007989247678779066
1773573120249421600,3.884421630859375,0.0001331541279796511,0.0011983871227130294,-0.0007989247678779066
1773573120259572000,3.894572021484375,0.0001331541279796511,0.0001331541279796511,-0.002929390873759985
1773573120269726200,3.904726318359375,0.0001331541279796511,-0.0009320789249613881,-0.0018641578499227762
1773573120279876900,3.914876953125,0.0001331541279796511,-0.0009320789249613881,-0.0007989247678779066
1773573120290023200,3.925023193359375,0.0001331541279796511,0.0001331541279796511,-0.0007989247678779066
1773573120300173300,3.93517333984375,-0.0009320789249613881,0.0001331541279796511,-0.0007989247678779066
1773573120310321400,3.9453212890625,0.0001331541279796511,0.0001331541279796511,-0.0007989247678779066
1773573120320471600,3.955471435546875,0.0001331541279796511,0.0001331541279796511,-0.0018641578499227762
1773573120330624000,3.9656240234375,0.0011983871227130294,0.0001331541279796511,-0.0007989247678779066
1773573120340774100,3.975774169921875,0.0011983871227130294,0.0011983871227130294,-0.0007989247678779066
1773573120350933800,3.985933837890625,0.0001331541279796511,0.00226362026296556,-0.0007989247678779066
1773573120361085000,3.9960849609375,0.0001331541279796511,0.0001331541279796511,-0.0018641578499227762
1773573120371228400,4.006228515625,0.0001331541279796511,-0.0009320789249613881,-0.0018641578499227762
1773573120381378600,4.016378662109375,0.0001331541279796511,0.0001331541279796511,-0.0018641578499227762
1773573120391527000,4.02652685546875,-0.0009320789249613881,-0.0009320789249613881,-0.0018641578499227762
1773573120401677300,4.03667724609375,0.0011983871227130294,-0.0009320789249613881,-0.0018641578499227762
1773573120411831300,4.046831298828125,0.00226362026296556,-0.0009320789249613881,-0.0007989247678779066
1773573120421981700,4.056981689453125,0.0011983871227130294,-0.001997311832383275,-0.0007989247678779066
1773573120432128000,4.0671279296875,0.0011983871227130294,-0.001997311832383275,-0.0018641578499227762
1773573120442278100,4.077278076171875,0.0011983871227130294,-0.0009320789249613881,-0.0018641578499227762
1773573120452444700,4.087444580078125,0.0001331541279796511,-0.0030625448562204838,0.0002663082559593022
1773573120462596400,4.097596435546875,0.0001331541279796511,-0.0030625448562204838,-0.0007989247678779066
1773573120472737000,4.107737060546875,0.0011983871227130294,-0.001997311832383275,0.0002663082559593022
1773573120482887700,4.1178876953125,0.0011983871227130294,-0.0030625448562204838,0.00133154122158885
1773573120493037800,4.128037841796875,-0.0009320789249613881,-0.001997311832383275,0.00133154122158885
1773573120503188500,4.1381884765625,0.0001331541279796511,-0.0009320789249613881,0.0002663082559593022
1773573120513314000,4.14831396484375,-0.0009320789249613881,-0.004127778112888336,0.00133154122158885
1773573120523462100,4.158462158203125,0.0001331541279796511,-0.0009320789249613881,0.0002663082559593022
1773573120533632000,4.168632080078125,0.0011983871227130294,0.005459319334477186,-0.0050598569214344025
1773573120543782100,4.1787822265625,0.0011983871227130294,0.006524552125483751,-0.009320789016783237
1773573120553953500,4.18895361328125,0.0011983871227130294,-0.007323476951569319,-0.0018641578499227762
1773573120564106000,4.19910595703125,0.00226362026296556,-0.0030625448562204838,0.0023967742454260588
1773573120574242800,4.209242919921875,0.0001331541279796511,0.015046416781842709,-0.0018641578499227762
1773573120584393700,4.219393798828125,0.0001331541279796511,-0.001997311832383275,-0.0007989247678779066
1773573120594538800,4.229538818359375,0.0001331541279796511,-0.017975807189941406,0.006657706573605537
1773573120604689200,4.239689208984375,-0.0009320789249613881,-0.006258244160562754,0.00452724052593112
1773573120614841900,4.249841796875,-0.0009320789249613881,-0.008388710208237171,0.0023967742454260588
1773573120624992500,4.259992431640625,-0.0009320789249613881,-0.016910573467612267,0.00452724052593112
1773573120635138600,4.270138671875,0.0001331541279796511,-0.007323476951569319,0.0002663082559593022
1773573120645288700,4.280288818359375,0.0001331541279796511,0.00226362026296556,-0.008255556225776672
1773573120655425000,4.290425048828125,0.0011983871227130294,0.0001331541279796511,-0.010386021807789803
1773573120665573600,4.30057373046875,0.00226362026296556,0.005459319334477186,-0.011451254598796368
1773573120675745300,4.310745361328125,0.0011983871227130294,0.018242115154862404,-0.013581721112132072
1773573120685896200,4.320896240234375,0.0011983871227130294,0.020372580736875534,-0.015712186694145203
1773573120696040700,4.331040771484375,0.00226362026296556,0.015046416781842709,-0.010386021807789803
1773573120706190800,4.34119091796875,0.00226362026296556,0.017176883295178413,-0.008255556225776672
1773573120716345000,4.351344970703125,0.00226362026296556,0.012915950268507004,-0.010386021807789803
1773573120726495700,4.361495849609375,0.0011983871227130294,0.004394086077809334,-0.008255556225776672
1773573120736660500,4.371660400390625,0.0011983871227130294,0.0001331541279796511,-0.008255556225776672
1773573120746812700,4.381812744140625,0.0033288532868027687,0.0011983871227130294,-0.009320789016783237
1773573120756966000,4.3919658203125,0.0033288532868027687,0.0033288532868027687,-0.011451254598796368
1773573120767118000,4.4021181640625,0.00226362026296556,0.004394086077809334,-0.014646953903138638
1773573120777246200,4.41224609375,0.004394086077809334,0.008655018173158169,-0.015712186694145203
1773573120787396000,4.42239599609375,0.0033288532868027687,0.012915950268507004,-0.013581721112132072
1773573120797550000,4.432550048828125,0.00226362026296556,0.012915950268507004,-0.012516488321125507
1773573120807700200,4.4427001953125,0.00226362026296556,0.010785484686493874,-0.011451254598796368
1773573120817852400,4.452852294921875,0.0033288532868027687,0.009720250964164734,-0.010386021807789803
1773573120828002800,4.4630029296875,0.00226362026296556,0.008655018173158169,-0.011451254598796368
1773573120838157000,4.473156982421875,0.0033288532868027687,0.005459319334477186,-0.012516488321125507
1773573120848307700,4.4833076171875,0.00226362026296556,0.004394086077809334,-0.012516488321125507
1773573120858462000,4.4934619140625,0.0011983871227130294,0.006524552125483751,-0.009320789016783237
1773573120868613000,4.503613037109375,0.0011983871227130294,0.006524552125483751,-0.008255556225776672
1773573120878756600,4.513756591796875,0.0011983871227130294,0.0033288532868027687,-0.009320789016783237
1773573120888907000,4.523906982421875,0.00226362026296556,0.005459319334477186,-0.00719032296910882
1773573120899052000,4.534052001953125,0.00226362026296556,0.005459319334477186,-0.0061250897124409676
1773573120909202000,4.544201904296875,0.0011983871227130294,0.004394086077809334,-0.00719032296910882
1773573120919360300,4.5543603515625,0.0011983871227130294,0.005459319334477186,-0.0061250897124409676
1773573120929511200,4.56451123046875,0.00226362026296556,0.006524552125483751,-0.0050598569214344025
1773573120939654700,4.574654541015625,0.00226362026296556,0.005459319334477186,-0.00719032296910882
1773573120949804500,4.584804443359375,0.0033288532868027687,0.005459319334477186,-0.008255556225776672
1773573120959977700,4.594977783203125,0.0011983871227130294,0.005459319334477186,-0.0061250897124409676
1773573120970130200,4.605130126953125,0.0011983871227130294,0.007589785382151604,-0.0061250897124409676
1773573120980257800,4.6152578125,0.0011983871227130294,0.006524552125483751,-0.0050598569214344025
1773573120990407700,4.62540771484375,0.0011983871227130294,0.004394086077809334,-0.00399462366476655
1773573121000577300,4.635577392578125,0.00226362026296556,0.0033288532868027687,-0.0018641578499227762
1773573121010729200,4.645729248046875,0.0011983871227130294,0.00226362026296556,0.0002663082559593022
1773573121020861200,4.655861083984375,-0.0009320789249613881,0.0011983871227130294,-0.0007989247678779066
1773573121031011000,4.666010986328125,0.0001331541279796511,-0.001997311832383275,-0.0007989247678779066
1773573121041160400,4.676160400390625,0.0001331541279796511,-0.001997311832383275,-0.0007989247678779066
1773573121051310300,4.686310302734375,0.0001331541279796511,-0.001997311832383275,0.00133154122158885
1773573121061477400,4.696477294921875,-0.0009320789249613881,-0.004127778112888336,0.0023967742454260588
1773573121071628800,4.70662890625,-0.001997311832383275,-0.004127778112888336,0.0023967742454260588
1773573121081781200,4.71678125,-0.0009320789249613881,-0.0030625448562204838,0.00133154122158885
1773573121091932700,4.7269326171875,0.0001331541279796511,-0.001997311832383275,0.0002663082559593022
1773573121102071300,4.7370712890625,0.0001331541279796511,0.0001331541279796511,-0.0007989247678779066
1773573121112221400,4.747221435546875,0.0001331541279796511,0.00226362026296556,-0.0018641578499227762
1773573121122383400,4.75738330078125,0.0011983871227130294,0.005459319334477186,-0.002929390873759985
1773573121132535000,4.76753515625,0.0011983871227130294,0.005459319334477186,-0.00399462366476655
1773573121142683100,4.77768310546875,0.0011983871227130294,0.005459319334477186,-0.0050598569214344025
1773573121152834300,4.787834228515625,0.0011983871227130294,0.007589785382151604,-0.00399462366476655
1773573121162990000,4.797989990234375,0.0011983871227130294,0.008655018173158169,-0.0061250897124409676
1773573121173141800,4.808141845703125,0.00226362026296556,0.008655018173158169,-0.0061250897124409676
1773573121183289300,4.818289306640625,0.00226362026296556,0.008655018173158169,-0.0061250897124409676
1773573121193440800,4.828440673828125,0.00226362026296556,0.007589785382151604,-0.0050598569214344025
1773573121203590700,4.838590576171875,0.00226362026296556,0.006524552125483751,-0.002929390873759985
1773573121213741600,4.848741455078125,0.00226362026296556,0.005459319334477186,-0.0018641578499227762
1773573121223895800,4.858895751953125,0.00226362026296556,0.005459319334477186,-0.0007989247678779066
1773573121234047200,4.869047119140625,0.00226362026296556,0.005459319334477186,0.0002663082559593022
1773573121244196600,4.879196533203125,0.00226362026296556,0.004394086077809334,0.00133154122158885
1773573121254347800,4.88934765625,0.0011983871227130294,0.00226362026296556,0.0034620072692632675
1773573121264463400,4.89946337890625,0.0011983871227130294,0.0001331541279796511,0.00133154122158885
1773573121274611000,4.90961083984375,0.0011983871227130294,-0.001997311832383275,0.0023967742454260588
1773573121284799000,4.919799072265625,0.0011983871227130294,-0.0030625448562204838,0.0023967742454260588
1773573121294950700,4.92995068359375,0.0011983871227130294,-0.001997311832383275,0.0023967742454260588
1773573121305067000,4.94006689453125,0.0001331541279796511,-0.0009320789249613881,0.00133154122158885
1773573121315215000,4.950215087890625,0.0011983871227130294,0.0001331541279796511,0.00133154122158885
1773573121325387800,4.9603876953125,0.0011983871227130294,0.0011983871227130294,0.00133154122158885
1773573121335538400,4.970538330078125,0.0011983871227130294,0.0033288532868027687,0.0002663082559593022
1773573121345687300,4.980687255859375,0.0011983871227130294,0.0033288532868027687,0.00133154122158885
1773573121355837700,4.990837646484375,0.0001331541279796511,0.00226362026296556,0.0034620072692632675
1773573121365991000,5.000990966796875,0.0001331541279796511,0.0011983871227130294,0.00133154122158885
1773573121376141600,5.0111416015625,0.0011983871227130294,0.00226362026296556,0.00133154122158885
1773573121386289700,5.02128955078125,0.00226362026296556,0.00226362026296556,0.00133154122158885
1773573121396440000,5.031440185546875,0.00226362026296556,0.0011983871227130294,0.0002663082559593022
1773573121406589700,5.041589599609375,0.0011983871227130294,0.00226362026296556,-0.0018641578499227762
1773573121416740000,5.051739990234375,0.0011983871227130294,0.005459319334477186,-0.0007989247678779066
1773573121426893800,5.061893798828125,0.0011983871227130294,0.005459319334477186,-0.0018641578499227762
1773573121437044500,5.07204443359375,0.0011983871227130294,0.004394086077809334,-0.0007989247678779066
1773573121447185000,5.082184814453125,0.00226362026296556,0.00226362026296556,-0.0007989247678779066
1773573121457334800,5.092334716796875,0.0033288532868027687,0.0011983871227130294,-0.002929390873759985
1773573121467498800,5.102498779296875,0.0011983871227130294,0.0033288532868027687,-0.0018641578499227762
1773573121477650000,5.11264990234375,0.0011983871227130294,0.0001331541279796511,-0.0018641578499227762
1773573121487833300,5.122833251953125,0.00226362026296556,-0.004127778112888336,-0.00399462366476655
1773573121497987800,5.13298779296875,0.00226362026296556,-0.001997311832383275,-0.0018641578499227762
1773573121508105000,5.14310498046875,0.0011983871227130294,-0.0009320789249613881,-0.0007989247678779066
1773573121518255600,5.153255615234375,0.0001331541279796511,-0.001997311832383275,-0.002929390873759985
1773573121528400600,5.163400634765625,0.0001331541279796511,-0.001997311832383275,-0.0007989247678779066
1773573121538550800,5.17355078125,0.0001331541279796511,-0.0009320789249613881,0.00133154122158885
1773573121548698600,5.18369873046875,-0.001997311832383275,-0.001997311832383275,0.00133154122158885
1773573121558848500,5.1938486328125,-0.0009320789249613881,-0.004127778112888336,0.0002663082559593022
1773573121569005800,5.204005859375,0.0001331541279796511,-0.004127778112888336,-0.0007989247678779066
1773573121579156500,5.214156494140625,-0.0009320789249613881,-0.0030625448562204838,0.00133154122158885
1773573121589298200,5.224298095703125,0.0001331541279796511,-0.0030625448562204838,0.0002663082559593022
1773573121599441000,5.23444091796875,0.0001331541279796511,-0.004127778112888336,0.00133154122158885
1773573121619740400,5.254740478515625,0.0001331541279796511,-0.0030625448562204838,-0.0007989247678779066
1773573121629896700,5.264896728515625,-0.0009320789249613881,-0.0030625448562204838,0.0002663082559593022
1773573121640047000,5.275047119140625,0.0001331541279796511,-0.001997311832383275,0.00133154122158885
1773573121650197800,5.28519775390625,0.0011983871227130294,-0.0009320789249613881,0.0023967742454260588
1773573121660348200,5.29534814453125,0.0011983871227130294,0.0033288532868027687,0.0023967742454260588
1773573121670508800,5.3055087890625,0.0001331541279796511,0.00226362026296556,0.0002663082559593022
1773573121680660200,5.31566015625,0.0001331541279796511,0.0001331541279796511,0.0002663082559593022
1773573121690802000,5.325802001953125,-0.0009320789249613881,0.0001331541279796511,-0.0007989247678779066
1773573121700952300,5.335952392578125,-0.0009320789249613881,-0.0009320789249613881,-0.0018641578499227762
1773573121711101200,5.34610107421875,0.0001331541279796511,-0.0009320789249613881,-0.0007989247678779066
1773573121721251300,5.356251220703125,0.0011983871227130294,-0.0009320789249613881,0.0002663082559593022
1773573121731401700,5.366401611328125,0.0011983871227130294,0.0001331541279796511,-0.0007989247678779066
1773573121741552000,5.37655224609375,0.0011983871227130294,0.0001331541279796511,0.0002663082559593022
1773573121751716600,5.386716552734375,0.0011983871227130294,0.0011983871227130294,0.00133154122158885
1773573121761868300,5.396868408203125,0.0001331541279796511,0.0001331541279796511,0.0023967742454260588
1773573121772021800,5.407021728515625,0.0011983871227130294,-0.004127778112888336,0.0023967742454260588
1773573121782173400,5.41717333984375,-0.0009320789249613881,-0.0030625448562204838,-0.0007989247678779066
1773573121792318000,5.42731787109375,0.0001331541279796511,-0.0009320789249613881,-0.0007989247678779066
1773573121802469000,5.43746923828125,0.0011983871227130294,-0.001997311832383275,-0.0007989247678779066
1773573121812612600,5.447612548828125,0.0001331541279796511,-0.004127778112888336,-0.0018641578499227762
1773573121822763000,5.457762939453125,0.0011983871227130294,-0.0030625448562204838,-0.0007989247678779066
1773573121832913000,5.467912841796875,0.0011983871227130294,0.0001331541279796511,-0.0007989247678779066
1773573121843063000,5.47806298828125,0.0011983871227130294,0.0011983871227130294,-0.0018641578499227762
1773573121853214500,5.48821435546875,0.0001331541279796511,0.0001331541279796511,-0.002929390873759985
1773573121863364900,5.49836474609375,0.0001331541279796511,-0.0009320789249613881,-0.002929390873759985
1773573121873534200,5.5085341796875,0.0011983871227130294,-0.0009320789249613881,-0.0007989247678779066
1773573121883686700,5.518686767578125,0.0001331541279796511,-0.0009320789249613881,-0.0007989247678779066
1773573121893817300,5.5288173828125,0.0001331541279796511,-0.0030625448562204838,0.0002663082559593022
1773573121903967500,5.538967529296875,0.0001331541279796511,-0.006258244160562754,-0.0018641578499227762
1773573121914107400,5.549107421875,0.0001331541279796511,-0.001997311832383275,-0.0018641578499227762
1773573121924256500,5.559256591796875,0.0011983871227130294,0.0001331541279796511,-0.0007989247678779066
1773573121934419200,5.569419189453125,0.0011983871227130294,-0.0009320789249613881,-0.0007989247678779066
1773573121944569600,5.579569580078125,0.0011983871227130294,0.0001331541279796511,-0.0007989247678779066
1773573121954716400,5.58971630859375,0.00226362026296556,-0.0009320789249613881,-0.0007989247678779066
1773573121964866600,5.599866455078125,0.0011983871227130294,0.0011983871227130294,0.0002663082559593022
1773573121975041300,5.610041259765625,0.0001331541279796511,0.0001331541279796511,0.0002663082559593022
1773573121985194000,5.620194091796875,0.0011983871227130294,-0.0030625448562204838,-0.0007989247678779066
1773573121995317500,5.6303173828125,0.00226362026296556,-0.001997311832383275,0.0002663082559593022
1773573122005467100,5.640467041015625,0.0001331541279796511,-0.0009320789249613881,-0.0007989247678779066
1773573122015618300,5.650618408203125,0.0011983871227130294,-0.0009320789249613881,-0.0007989247678779066
1773573122025768200,5.660768310546875,0.0011983871227130294,-0.004127778112888336,-0.002929390873759985
1773573122035929300,5.670929443359375,0.0001331541279796511,-0.005193010903894901,-0.0018641578499227762
1773573122046080300,5.681080322265625,0.00226362026296556,-0.0030625448562204838,-0.0018641578499227762
1773573122056207000,5.69120703125,0.00226362026296556,-0.0030625448562204838,-0.002929390873759985
1773573122066355700,5.701355712890625,0.0011983871227130294,-0.0030625448562204838,-0.002929390873759985
1773573122076537900,5.711537841796875,0.0011983871227130294,-0.005193010903894901,-0.0007989247678779066
1773573122086689800,5.721689697265625,0.0011983871227130294,-0.005193010903894901,0.0002663082559593022
1773573122096831000,5.7318310546875,0.0011983871227130294,-0.0030625448562204838,-0.0007989247678779066
1773573122106982000,5.74198193359375,0.00226362026296556,0.0011983871227130294,-0.0018641578499227762
1773573122117129700,5.752129638671875,0.0011983871227130294,0.0011983871227130294,0.0002663082559593022
1773573122127280000,5.762280029296875,0.0001331541279796511,-0.0030625448562204838,-0.0007989247678779066
1773573122137437000,5.77243701171875,-0.0009320789249613881,-0.006258244160562754,0.0002663082559593022
1773573122147588000,5.782588134765625,0.0011983871227130294,-0.008388710208237171,0.0023967742454260588
1773573122157735400,5.7927353515625,0.0011983871227130294,-0.009453942999243736,0.0023967742454260588
1773573122167886300,5.80288623046875,0.0001331541279796511,-0.010519175790250301,0.00133154122158885
1773573122178040000,5.8130400390625,0.0001331541279796511,-0.009453942999243736,0.00133154122158885
1773573122188191200,5.823191162109375,0.0001331541279796511,-0.013714875094592571,-0.0007989247678779066
1773573122198331100,5.8333310546875,0.0001331541279796511,-0.014780107885599136,0.0002663082559593022
1773573122208481300,5.843481201171875,0.0001331541279796511,-0.005193010903894901,0.0023967742454260588
1773573122218627800,5.8536279296875,0.0001331541279796511,-0.008388710208237171,0.0023967742454260588
1773573122228777500,5.863777587890625,0.0001331541279796511,-0.017975807189941406,0.0002663082559593022
1773573122238941200,5.873941162109375,0.0001331541279796511,-0.008388710208237171,0.0002663082559593022
1773573122249092400,5.88409228515625,0.0001331541279796511,-0.001997311832383275,0.0034620072692632675
1773573122259233300,5.8942333984375,0.0001331541279796511,-0.009453942999243736,0.0023967742454260588
1773573122269383400,5.904383544921875,0.0011983871227130294,-0.020106272771954536,-0.0018641578499227762
1773573122279551700,5.9145517578125,0.0011983871227130294,-0.022236740216612816,-0.0018641578499227762
1773573122289703700,5.92470361328125,0.0011983871227130294,-0.017975807189941406,0.0002663082559593022
1773573122299835000,5.9348349609375,0.00226362026296556,-0.024367205798625946,0.0002663082559593022
1773573122309984500,5.944984619140625,0.0011983871227130294,-0.027562905102968216,0.0002663082559593022
1773573122320136200,5.95513623046875,0.0033288532868027687,-0.019041040912270546,-0.0007989247678779066
1773573122330286000,5.9652861328125,0.00226362026296556,-0.010519175790250301,-0.0007989247678779066
1773573122340454000,5.975453857421875,0.00226362026296556,-0.006258244160562754,0.0002663082559593022
1773573122350605600,5.98560546875,0.00226362026296556,-0.007323476951569319,0.0002663082559593022
1773573122360755200,5.995755126953125,0.00226362026296556,-0.008388710208237171,0.0002663082559593022
1773573122370906600,6.00590673828125,0.00226362026296556,-0.005193010903894901,0.0002663082559593022
1773573122381054500,6.016054443359375,0.0011983871227130294,-0.004127778112888336,0.0002663082559593022
1773573122391205600,6.02620556640625,0.0011983871227130294,-0.009453942999243736,0.00133154122158885
1773573122401358000,6.036358154296875,0.00226362026296556,-0.013714875094592571,0.0002663082559593022
1773573122411509200,6.04650927734375,0.0011983871227130294,-0.009453942999243736,-0.0018641578499227762
1773573122421662500,6.056662353515625,0.0001331541279796511,-0.006258244160562754,-0.0018641578499227762
1773573122431814000,6.06681396484375,0.0011983871227130294,-0.008388710208237171,-0.0018641578499227762
1773573122441957400,6.076957275390625,0.0011983871227130294,-0.004127778112888336,-0.0007989247678779066
1773573122452108000,6.08710791015625,0.0001331541279796511,0.0001331541279796511,0.0002663082559593022
1773573122462265600,6.097265625,0.0001331541279796511,-0.0030625448562204838,0.00133154122158885
1773573122472417000,6.1074169921875,0.0011983871227130294,-0.010519175790250301,-0.0007989247678779066
1773573122482532600,6.11753271484375,0.0001331541279796511,-0.007323476951569319,-0.0007989247678779066
1773573122492680400,6.127680419921875,0.0001331541279796511,0.00226362026296556,0.0002663082559593022
1773573122502864000,6.13786376953125,0.0001331541279796511,0.004394086077809334,0.0023967742454260588
1773573122513015300,6.148015380859375,-0.0009320789249613881,0.005459319334477186,0.00133154122158885
1773573122523133000,6.1581328125,0.0001331541279796511,0.007589785382151604,0.0002663082559593022
1773573122533281000,6.168281005859375,-0.0009320789249613881,0.007589785382151604,0.00133154122158885
1773573122543450000,6.1784501953125,0.0011983871227130294,0.00226362026296556,0.00133154122158885
1773573122553600300,6.188600341796875,0.0011983871227130294,0.0011983871227130294,0.0002663082559593022
1773573122563757300,6.19875732421875,-0.0009320789249613881,0.004394086077809334,0.00133154122158885
1773573122573908200,6.208908203125,0.0001331541279796511,0.00226362026296556,0.0002663082559593022
1773573122584052700,6.219052734375,-0.0009320789249613881,0.0011983871227130294,0.00133154122158885
1773573122594203000,6.229202880859375,0.0001331541279796511,0.008655018173158169,0.0023967742454260588
1773573122604355000,6.23935498046875,0.0001331541279796511,0.011850717477500439,0.0002663082559593022
1773573122614480100,6.249480224609375,0.0001331541279796511,0.009720250964164734,-0.0007989247678779066
1773573122634804000,6.269803955078125,0.0011983871227130294,0.009720250964164734,0.0002663082559593022
1773573122644957000,6.27995703125,0.0001331541279796511,0.00226362026296556,-0.0007989247678779066
1773573122655105300,6.290105224609375,0.0001331541279796511,0.00226362026296556,0.00133154122158885
1773573122665257700,6.3002578125,0.0011983871227130294,0.006524552125483751,0.00133154122158885
1773573122675410000,6.310409912109375,-0.0009320789249613881,0.007589785382151604,-0.0007989247678779066
1773573122685562400,6.320562255859375,0.0001331541279796511,0.009720250964164734,-0.0007989247678779066
1773573122695718000,6.3307177734375,-0.0009320789249613881,0.009720250964164734,-0.0018641578499227762
1773573122705870800,6.340870849609375,0.0001331541279796511,0.008655018173158169,0.00133154122158885
1773573122716008400,6.351008544921875,0.00226362026296556,0.00226362026296556,0.0002663082559593022
1773573122726159600,6.36115966796875,0.0011983871227130294,-0.0009320789249613881,-0.0007989247678779066
1773573122736310300,6.371310302734375,0.0001331541279796511,0.00226362026296556,0.0002663082559593022
1773573122746461400,6.38146142578125,0.0001331541279796511,-0.0009320789249613881,0.0002663082559593022
1773573122756612600,6.391612548828125,0.0011983871227130294,-0.001997311832383275,-0.0018641578499227762
1773573122766763800,6.401763671875,0.0011983871227130294,0.004394086077809334,0.0002663082559593022
1773573122776918000,6.41191796875,0.0001331541279796511,0.007589785382151604,0.0002663082559593022
1773573122787069400,6.4220693359375,0.0001331541279796511,0.005459319334477186,-0.0018641578499227762
1773573122797231900,6.43223193359375,0.0001331541279796511,0.0033288532868027687,-0.0018641578499227762
1773573122807384300,6.44238427734375,0.0001331541279796511,0.0001331541279796511,-0.0018641578499227762
1773573122817516800,6.452516845703125,0.0001331541279796511,0.0001331541279796511,-0.0018641578499227762
1773573122827667500,6.46266748046875,0.0011983871227130294,-0.0030625448562204838,-0.002929390873759985
1773573122837831700,6.472831787109375,0.0011983871227130294,-0.001997311832383275,-0.0018641578499227762
1773573122847983600,6.482983642578125,0.0001331541279796511,0.006524552125483751,-0.0007989247678779066
1773573122858116000,6.4931162109375,0.0011983871227130294,0.004394086077809334,-0.002929390873759985
1773573122868266200,6.503266357421875,0.0011983871227130294,0.00226362026296556,-0.00399462366476655
1773573122878421800,6.513421875,0.0001331541279796511,0.00226362026296556,-0.0007989247678779066
1773573122888572200,6.523572265625,0.0001331541279796511,-0.004127778112888336,0.0002663082559593022
1773573122898730200,6.533730224609375,-0.0009320789249613881,-0.001997311832383275,0.0002663082559593022
1773573122908881700,6.543881591796875,0.0001331541279796511,0.0033288532868027687,-0.0007989247678779066
1773573122919029800,6.55402978515625,0.0001331541279796511,0.0033288532868027687,0.0002663082559593022
1773573122929181000,6.564180908203125,0.0011983871227130294,0.0033288532868027687,0.0002663082559593022
1773573122939320800,6.57432080078125,0.0011983871227130294,0.004394086077809334,-0.0018641578499227762
1773573122949470700,6.584470703125,0.0001331541279796511,0.004394086077809334,-0.0018641578499227762
1773573122959629800,6.5946298828125,0.0001331541279796511,0.004394086077809334,-0.0018641578499227762
1773573122969780700,6.60478076171875,0.0011983871227130294,0.004394086077809334,-0.002929390873759985
1773573122979924700,6.6149248046875,0.0011983871227130294,0.004394086077809334,-0.0018641578499227762
1773573122990075000,6.625074951171875,0.0011983871227130294,0.0033288532868027687,0.0002663082559593022
1773573123000246500,6.63524658203125,0.0001331541279796511,0.0011983871227130294,-0.0007989247678779066
1773573123010398700,6.645398681640625,0.0001331541279796511,0.0001331541279796511,-0.0018641578499227762
1773573123020528000,6.655528076171875,0.0011983871227130294,0.00226362026296556,-0.002929390873759985
1773573123030678300,6.66567822265625,0.00226362026296556,0.007589785382151604,-0.0018641578499227762
1773573123040831000,6.6758310546875,0.0011983871227130294,0.004394086077809334,-0.0007989247678779066
1773573123050981400,6.6859814453125,0.0011983871227130294,0.005459319334477186,-0.0007989247678779066
1773573123061130000,6.6961298828125,0.0011983871227130294,0.005459319334477186,-0.0007989247678779066
1773573123071280000,6.706280029296875,0.0011983871227130294,0.00226362026296556,-0.0007989247678779066
1773573123081450500,6.716450439453125,0.0001331541279796511,0.0011983871227130294,-0.0018641578499227762
1773573123091602700,6.726602783203125,0.0001331541279796511,0.005459319334477186,-0.0018641578499227762
1773573123101726200,6.736726318359375,0.0011983871227130294,0.004394086077809334,-0.002929390873759985
1773573123111875300,6.746875244140625,0.0001331541279796511,0.004394086077809334,-0.0018641578499227762
1773573123122042400,6.75704248046875,-0.0009320789249613881,0.005459319334477186,-0.0007989247678779066
1773573123132193300,6.767193359375,0.0011983871227130294,0.005459319334477186,-0.0007989247678779066
1773573123142335700,6.777335693359375,0.00226362026296556,0.009720250964164734,-0.0007989247678779066
1773573123152486000,6.78748583984375,0.00226362026296556,0.006524552125483751,-0.002929390873759985
1773573123162637800,6.797637939453125,0.0011983871227130294,0.00226362026296556,-0.002929390873759985
1773573123172788000,6.8077880859375,0.0001331541279796511,0.004394086077809334,-0.0018641578499227762
1773573123182939400,6.817939453125,0.0011983871227130294,0.0011983871227130294,-0.0018641578499227762
1773573123193089800,6.82808984375,0.00226362026296556,-0.0030625448562204838,-0.0018641578499227762
1773573123203226600,6.8382265625,0.0001331541279796511,0.0001331541279796511,-0.0018641578499227762
1773573123213375700,6.848375732421875,0.0001331541279796511,0.004394086077809334,-0.0007989247678779066
1773573123223543600,6.85854345703125,0.0001331541279796511,0.00226362026296556,-0.0018641578499227762
1773573123233694500,6.868694580078125,0.0001331541279796511,0.005459319334477186,-0.0007989247678779066
1773573123243841000,6.878841064453125,0.0001331541279796511,0.006524552125483751,0.00133154122158885
1773573123253991400,6.888991455078125,0.0001331541279796511,0.0033288532868027687,-0.0007989247678779066
1773573123264142800,6.899142822265625,0.0001331541279796511,0.0001331541279796511,0.0002663082559593022
1773573123274293500,6.90929345703125,0.0001331541279796511,-0.0030625448562204838,0.0002663082559593022
1773573123284444400,6.9194443359375,0.0011983871227130294,-0.004127778112888336,-0.0007989247678779066
1773573123294595000,6.929594970703125,0.0001331541279796511,-0.001997311832383275,-0.0018641578499227762
1773573123304775000,6.93977490234375,0.0011983871227130294,-0.0009320789249613881,0.0002663082559593022
1773573123314928400,6.949928466796875,0.0001331541279796511,-0.0009320789249613881,0.0023967742454260588
1773573123325050000,6.960050048828125,-0.0009320789249613881,0.0001331541279796511,0.00133154122158885
1773573123335200500,6.970200439453125,-0.0009320789249613881,-0.001997311832383275,0.0002663082559593022
1773573123345344800,6.9803447265625,-0.0009320789249613881,-0.0009320789249613881,0.0002663082559593022
1773573123355494700,6.99049462890625,0.0001331541279796511,0.00226362026296556,0.0002663082559593022
1773573123365666300,7.000666259765625,0.0001331541279796511,0.009720250964164734,0.00133154122158885
1773573123375818200,7.010818359375,0.0001331541279796511,0.008655018173158169,0.0002663082559593022
1773573123385954000,7.0209541015625,-0.0009320789249613881,0.00226362026296556,0.0002663082559593022
1773573123396104400,7.0311044921875,-0.0009320789249613881,0.004394086077809334,0.0002663082559593022
1773573123406238500,7.041238525390625,0.0011983871227130294,0.0033288532868027687,-0.0007989247678779066
1773573123416387300,7.05138720703125,0.0011983871227130294,-0.001997311832383275,-0.0018641578499227762
1773573123426552000,7.061552001953125,0.0001331541279796511,-0.004127778112888336,-0.002929390873759985
1773573123436702500,7.071702392578125,0.0001331541279796511,-0.0009320789249613881,-0.002929390873759985
1773573123446867700,7.08186767578125,0.00226362026296556,-0.001997311832383275,-0.0018641578499227762
1773573123457019600,7.09201953125,0.0011983871227130294,-0.0009320789249613881,-0.0007989247678779066
1773573123467155500,7.102155517578125,0.0001331541279796511,0.004394086077809334,-0.0007989247678779066
1773573123477305600,7.1123056640625,0.0001331541279796511,0.00226362026296556,-0.002929390873759985
1773573123487466200,7.12246630859375,0.0011983871227130294,0.0001331541279796511,-0.002929390873759985
1773573123497617400,7.132617431640625,0.00226362026296556,0.006524552125483751,-0.0007989247678779066
1773573123507776500,7.142776611328125,0.0011983871227130294,0.0033288532868027687,-0.0018641578499227762
1773573123517928700,7.1529287109375,0.0011983871227130294,-0.006258244160562754,-0.0018641578499227762
1773573123528057300,7.163057373046875,-0.0009320789249613881,0.00226362026296556,-0.0018641578499227762
1773573123538207200,7.173207275390625,0.0011983871227130294,0.005459319334477186,-0.0007989247678779066
1773573123548357000,7.183357177734375,0.0001331541279796511,0.0001331541279796511,-0.0007989247678779066
1773573123558507000,7.193507080078125,0.0011983871227130294,0.0001331541279796511,-0.0007989247678779066
1773573123568682800,7.203682861328125,0.0001331541279796511,-0.0009320789249613881,-0.0007989247678779066
1773573123578835200,7.213835205078125,0.0011983871227130294,-0.007323476951569319,-0.0007989247678779066
1773573123588977000,7.223976806640625,0.0001331541279796511,-0.006258244160562754,-0.0007989247678779066
1773573123599128300,7.23412841796875,-0.0009320789249613881,0.0011983871227130294,0.00133154122158885
1773573123609282000,7.244281982421875,0.0001331541279796511,-0.001997311832383275,0.00133154122158885
1773573123619433700,7.254433837890625,0.0001331541279796511,-0.001997311832383275,0.0002663082559593022
1773573123629582300,7.264582275390625,0.0001331541279796511,0.0001331541279796511,-0.0018641578499227762
1773573123639733500,7.2747333984375,0.0011983871227130294,0.0001331541279796511,-0.0018641578499227762
1773573123649880800,7.284880859375,0.0001331541279796511,0.0001331541279796511,-0.00399462366476655
1773573123660031700,7.29503173828125,0.0001331541279796511,0.0011983871227130294,-0.00399462366476655
1773573123670180400,7.305180419921875,0.0001331541279796511,0.0011983871227130294,-0.0018641578499227762
1773573123680331000,7.3153310546875,0.0011983871227130294,0.004394086077809334,-0.0007989247678779066
1773573123690482000,7.32548193359375,0.0011983871227130294,0.005459319334477186,-0.0018641578499227762
1773573123700632600,7.335632568359375,0.0011983871227130294,-0.0030625448562204838,-0.002929390873759985
1773573123710790400,7.345790283203125,0.0001331541279796511,-0.0030625448562204838,-0.0007989247678779066
1773573123720941800,7.35594189453125,0.0011983871227130294,0.00226362026296556,-0.0018641578499227762
1773573123731085600,7.36608544921875,0.00226362026296556,-0.0030625448562204838,-0.002929390873759985
1773573123741236200,7.376236328125,0.0001331541279796511,-0.001997311832383275,-0.0007989247678779066
1773573123751391500,7.3863916015625,0.0001331541279796511,0.005459319334477186,-0.0018641578499227762
1773573123761542700,7.396542724609375,0.0011983871227130294,0.0033288532868027687,-0.002929390873759985
1773573123771694300,7.4066943359375,0.0001331541279796511,-0.001997311832383275,-0.002929390873759985
1773573123781845500,7.416845458984375,0.0011983871227130294,0.0033288532868027687,-0.0018641578499227762
1773573123791974100,7.42697412109375,0.0011983871227130294,0.006524552125483751,-0.0007989247678779066
1773573123802123000,7.437123046875,0.0001331541279796511,0.0011983871227130294,-0.0018641578499227762
1773573123812281900,7.44728173828125,0.0011983871227130294,-0.0009320789249613881,-0.0018641578499227762
1773573123822431700,7.457431640625,-0.0009320789249613881,0.0001331541279796511,-0.0007989247678779066
1773573123832583200,7.467583251953125,0.0001331541279796511,0.0001331541279796511,-0.0007989247678779066
1773573123842733300,7.4777333984375,0.0011983871227130294,0.00226362026296556,-0.0018641578499227762
1773573123852874800,7.487874755859375,0.0001331541279796511,0.0033288532868027687,0.0002663082559593022
1773573123863024000,7.498024169921875,0.0011983871227130294,0.0011983871227130294,-0.0007989247678779066
1773573123873186600,7.5081865234375,-0.0009320789249613881,0.0001331541279796511,-0.0007989247678779066
1773573123883337000,7.5183369140625,0.0011983871227130294,-0.001997311832383275,0.0002663082559593022
1773573123893464600,7.528464599609375,0.00226362026296556,-0.0030625448562204838,0.0002663082559593022
1773573123903612700,7.53861279296875,-0.0009320789249613881,-0.0009320789249613881,-0.0018641578499227762
1773573123913780200,7.5487802734375,-0.0009320789249613881,-0.0009320789249613881,-0.0007989247678779066
1773573123923930400,7.558930419921875,-0.0009320789249613881,-0.004127778112888336,-0.0018641578499227762
1773573123934078200,7.569078125,0.0001331541279796511,-0.001997311832383275,-0.0018641578499227762
1773573123944228000,7.57922802734375,0.0011983871227130294,0.004394086077809334,0.0002663082559593022
1773573123954385400,7.589385498046875,0.0001331541279796511,0.0033288532868027687,-0.0007989247678779066
1773573123964536000,7.5995361328125,-0.0009320789249613881,-0.001997311832383275,-0.002929390873759985
1773573123974675000,7.609675048828125,0.0001331541279796511,0.004394086077809334,0.0002663082559593022
1773573123984824300,7.61982421875,0.0001331541279796511,0.007589785382151604,0.00133154122158885
1773573123994985700,7.62998583984375,0.0001331541279796511,-0.001997311832383275,-0.0018641578499227762
1773573124005136400,7.640136474609375,0.0001331541279796511,-0.005193010903894901,-0.0018641578499227762
1773573124015298000,7.650298095703125,0.0001331541279796511,-0.001997311832383275,0.0002663082559593022
1773573124025449700,7.66044970703125,0.0001331541279796511,-0.0009320789249613881,-0.0007989247678779066
1773573124035592200,7.67059228515625,0.0001331541279796511,-0.0009320789249613881,-0.00399462366476655
1773573124045743000,7.6807431640625,0.0001331541279796511,-0.0009320789249613881,-0.0007989247678779066
1773573124055889000,7.690888916015625,0.0001331541279796511,-0.004127778112888336,0.00133154122158885
1773573124066039000,7.7010390625,0.0011983871227130294,0.0001331541279796511,-0.0018641578499227762
1773573124076204500,7.71120458984375,0.0011983871227130294,0.006524552125483751,-0.0018641578499227762
1773573124086356500,7.7213564453125,0.0001331541279796511,0.005459319334477186,0.0002663082559593022
1773573124096490200,7.731490234375,0.0011983871227130294,0.0033288532868027687,-0.0007989247678779066
1773573124106640400,7.741640380859375,0.0011983871227130294,0.007589785382151604,0.0002663082559593022
1773573124116792300,7.751792236328125,0.0001331541279796511,0.0011983871227130294,0.0002663082559593022
1773573124126942700,7.761942626953125,0.0001331541279796511,-0.007323476951569319,-0.002929390873759985
1773573124137098200,7.77209814453125,0.0011983871227130294,-0.004127778112888336,-0.002929390873759985
1773573124147249200,7.782249267578125,0.0001331541279796511,0.0001331541279796511,0.0002663082559593022
1773573124157397000,7.79239697265625,0.0001331541279796511,0.0001331541279796511,0.00133154122158885
1773573124167547600,7.802547607421875,0.0011983871227130294,0.0011983871227130294,-0.0007989247678779066
1773573124177713400,7.81271337890625,0.0011983871227130294,0.0001331541279796511,-0.0007989247678779066
1773573124187865300,7.822865234375,0.0011983871227130294,0.0011983871227130294,0.0002663082559593022
1773573124198004700,7.833004638671875,0.0001331541279796511,0.0011983871227130294,-0.0007989247678779066
1773573124208155600,7.84315576171875,0.0001331541279796511,0.0011983871227130294,-0.0018641578499227762
1773573124218298400,7.85329833984375,0.0001331541279796511,0.00226362026296556,-0.0018641578499227762
1773573124228448300,7.8634482421875,0.0011983871227130294,0.0033288532868027687,0.0002663082559593022
1773573124238616300,7.8736162109375,0.0011983871227130294,0.0033288532868027687,-0.0007989247678779066
1773573124248768000,7.88376806640625,-0.0009320789249613881,0.00226362026296556,0.0002663082559593022
1773573124258898400,7.8938984375,0.0001331541279796511,0.0001331541279796511,0.0002663082559593022
1773573124269048000,7.904048095703125,0.0001331541279796511,-0.0030625448562204838,-0.0007989247678779066
1773573124279216400,7.91421630859375,0.0011983871227130294,0.0001331541279796511,-0.0007989247678779066
1773573124289368000,7.9243681640625,0.0001331541279796511,0.0033288532868027687,-0.0018641578499227762
1773573124299501600,7.93450146484375,0.0001331541279796511,-0.0009320789249613881,-0.0018641578499227762
1773573124309651500,7.9446513671875,-0.0009320789249613881,0.0001331541279796511,-0.0018641578499227762
1773573124319807700,7.954807861328125,0.0011983871227130294,0.00226362026296556,-0.0007989247678779066
1773573124329958100,7.964958251953125,0.0011983871227130294,0.00226362026296556,-0.0018641578499227762
1773573124340105000,7.97510498046875,0.0011983871227130294,0.0033288532868027687,-0.0018641578499227762
1773573124350254800,7.9852548828125,0.0011983871227130294,0.0001331541279796511,-0.0007989247678779066
1773573124360405500,7.995405517578125,0.0001331541279796511,0.0011983871227130294,-0.0007989247678779066
1773573124370555600,8.0055556640625,0.00226362026296556,0.0033288532868027687,-0.0018641578499227762
1773573124380718000,8.015718017578125,0.00226362026296556,-0.001997311832383275,-0.002929390873759985
1773573124390869500,8.025869384765626,0.0001331541279796511,-0.001997311832383275,-0.002929390873759985
1773573124401008400,8.03600830078125,-0.0009320789249613881,0.00226362026296556,-0.002929390873759985
1773573124411158500,8.046158447265626,0.0001331541279796511,0.0001331541279796511,-0.0007989247678779066
1773573124421308400,8.056308349609376,0.0001331541279796511,-0.0009320789249613881,-0.0007989247678779066
1773573124431458600,8.06645849609375,0.0001331541279796511,0.00226362026296556,-0.0007989247678779066
1773573124441617200,8.0766171875,0.0001331541279796511,0.00226362026296556,-0.0018641578499227762
1773573124451768000,8.08676806640625,0.0001331541279796511,-0.0009320789249613881,-0.002929390873759985
1773573124461910500,8.09691064453125,0.0001331541279796511,-0.0009320789249613881,-0.0018641578499227762
1773573124472060700,8.107060791015625,0.0001331541279796511,-0.0009320789249613881,-0.0007989247678779066
1773573124482199300,8.11719921875,0.0001331541279796511,-0.001997311832383275,-0.0018641578499227762
1773573124492348200,8.12734814453125,0.0011983871227130294,-0.001997311832383275,0.0002663082559593022
1773573124502529500,8.137529541015626,0.0001331541279796511,0.0011983871227130294,-0.0007989247678779066
1773573124512681700,8.147681640625,0.0001331541279796511,0.0011983871227130294,-0.0018641578499227762
1773573124522820600,8.157820556640624,0.0011983871227130294,0.0001331541279796511,-0.002929390873759985
1773573124532971500,8.167971435546875,0.0011983871227130294,0.00226362026296556,-0.0018641578499227762
1773573124543115300,8.178115234375,0.0001331541279796511,0.0033288532868027687,-0.0018641578499227762
1773573124553265400,8.188265380859375,0.0001331541279796511,0.0011983871227130294,-0.0018641578499227762
1773573124563420200,8.198420166015625,0.0001331541279796511,0.0001331541279796511,-0.0018641578499227762
1773573124573570800,8.20857080078125,0.0001331541279796511,0.0001331541279796511,-0.0018641578499227762
1773573124583724800,8.218724853515624,-0.0009320789249613881,0.0011983871227130294,-0.002929390873759985
1773573124593875700,8.228875732421875,0.0011983871227130294,-0.0009320789249613881,-0.0007989247678779066
1773573124604023000,8.23902294921875,0.0011983871227130294,-0.0009320789249613881,-0.0007989247678779066
1773573124614173400,8.24917333984375,0.0011983871227130294,0.00226362026296556,0.00133154122158885
1773573124624324400,8.259324462890625,-0.0009320789249613881,0.0011983871227130294,0.0002663082559593022
1773573124634475000,8.26947509765625,0.0001331541279796511,-0.0009320789249613881,-0.0007989247678779066
1773573124644627000,8.279626953125,0.0001331541279796511,0.0011983871227130294,0.0002663082559593022
1773573124654777600,8.289777587890624,0.0011983871227130294,0.0001331541279796511,0.00133154122158885
1773573124664921600,8.299921630859375,0.0011983871227130294,-0.0009320789249613881,-0.0007989247678779066
1773573124675071700,8.31007177734375,0.0001331541279796511,0.0011983871227130294,-0.0018641578499227762
1773573124685234700,8.320234619140624,0.0001331541279796511,0.0001331541279796511,-0.0007989247678779066
1773573124695386000,8.33038623046875,0.0001331541279796511,-0.0009320789249613881,-0.0007989247678779066
1773573124705537800,8.340537841796875,0.0011983871227130294,0.0011983871227130294,-0.0007989247678779066
1773573124715689200,8.350689208984376,0.0011983871227130294,0.0011983871227130294,-0.0018641578499227762
1773573124725828000,8.360828125,0.0011983871227130294,0.0001331541279796511,-0.0007989247678779066
1773573124735978200,8.370978271484375,0.0011983871227130294,0.0001331541279796511,-0.0007989247678779066
1773573124746128400,8.38112841796875,0.0011983871227130294,-0.0009320789249613881,-0.0007989247678779066
1773573124756278500,8.391278564453126,0.0011983871227130294,-0.0009320789249613881,-0.0007989247678779066
1773573124766441500,8.40144140625,0.0001331541279796511,-0.0009320789249613881,-0.0007989247678779066
1773573124776593000,8.411593017578125,0.0011983871227130294,-0.0030625448562204838,-0.0007989247678779066
1773573124786724000,8.42172412109375,0.0001331541279796511,-0.0009320789249613881,0.0002663082559593022
1773573124796873500,8.43187353515625,0.0001331541279796511,0.0001331541279796511,0.00133154122158885
1773573124807044900,8.442044921875,0.0001331541279796511,0.0011983871227130294,0.00133154122158885
1773573124817196500,8.452196533203125,-0.0009320789249613881,0.0001331541279796511,-0.0007989247678779066
1773573124827349500,8.462349609375,0.0001331541279796511,0.0001331541279796511,-0.0007989247678779066
1773573124837501200,8.472501220703125,0.0001331541279796511,0.00226362026296556,-0.0007989247678779066
1773573124847619800,8.482619873046875,0.0011983871227130294,0.004394086077809334,0.0002663082559593022
1773573124857768200,8.492768310546875,0.0001331541279796511,0.0011983871227130294,-0.0018641578499227762
1773573124867948000,8.502947998046874,0.0001331541279796511,0.0011983871227130294,-0.0018641578499227762
1773573124878099700,8.513099609375,0.0001331541279796511,0.004394086077809334,-0.0018641578499227762
1773573124888212500,8.52321240234375,0.0011983871227130294,0.004394086077809334,-0.0018641578499227762
1773573124898360000,8.533360107421874,0.0001331541279796511,0.007589785382151604,-0.0007989247678779066
1773573124908553200,8.54355322265625,-0.0009320789249613881,0.006524552125483751,-0.0007989247678779066
1773573124918705400,8.553705322265625,0.0011983871227130294,0.0033288532868027687,-0.0018641578499227762
1773573124928856000,8.56385595703125,0.0011983871227130294,0.00226362026296556,-0.0018641578499227762
1773573124939008000,8.574008056640626,0.0001331541279796511,-0.001997311832383275,-0.002929390873759985
1773573124949152300,8.58415234375,0.0001331541279796511,-0.0030625448562204838,-0.0018641578499227762
1773573124959303400,8.594303466796875,0.0011983871227130294,0.00226362026296556,-0.0018641578499227762
1773573124969456400,8.604456298828126,0.0001331541279796511,0.0001331541279796511,-0.0018641578499227762
1773573124979607800,8.61460791015625,0.0011983871227130294,-0.0030625448562204838,0.0002663082559593022
1773573124989760000,8.624760009765625,0.0001331541279796511,0.0011983871227130294,0.0002663082559593022
1773573124999911700,8.63491162109375,0.0001331541279796511,0.0011983871227130294,0.0002663082559593022
1773573125010056000,8.645055908203124,0.0011983871227130294,-0.004127778112888336,-0.0007989247678779066
1773573125020206600,8.65520654296875,-0.0009320789249613881,-0.001997311832383275,0.00133154122158885
1773573125030331600,8.66533154296875,0.0001331541279796511,0.0011983871227130294,0.00133154122158885
1773573125040480000,8.67547998046875,0.0001331541279796511,-0.0009320789249613881,-0.0007989247678779066
1773573125050646300,8.685646240234375,0.0001331541279796511,0.0011983871227130294,-0.0018641578499227762
1773573125060796400,8.69579638671875,0.0011983871227130294,0.004394086077809334,-0.0018641578499227762
1773573125070951400,8.705951416015624,0.0001331541279796511,0.0033288532868027687,-0.0007989247678779066
1773573125081102000,8.71610205078125,-0.0009320789249613881,0.0033288532868027687,-0.0018641578499227762
1773573125091249400,8.72624951171875,0.0001331541279796511,0.0001331541279796511,-0.0018641578499227762
1773573125101399600,8.736399658203124,0.0001331541279796511,-0.004127778112888336,0.0002663082559593022
1773573125111567400,8.7465673828125,0.0011983871227130294,-0.001997311832383275,-0.0018641578499227762
1773573125121719300,8.75671923828125,0.00226362026296556,0.00226362026296556,-0.0018641578499227762
1773573125131854800,8.766854736328124,0.0011983871227130294,0.0011983871227130294,-0.0018641578499227762
1773573125142005200,8.777005126953124,0.0001331541279796511,-0.0009320789249613881,-0.0018641578499227762
1773573125152164400,8.787164306640625,0.0001331541279796511,0.00226362026296556,-0.0018641578499227762
1773573125162315500,8.7973154296875,0.0001331541279796511,0.0033288532868027687,-0.0007989247678779066
1773573125172454700,8.80745458984375,0.0011983871227130294,-0.0009320789249613881,-0.0007989247678779066
1773573125182604500,8.8176044921875,0.0011983871227130294,-0.001997311832383275,-0.0007989247678779066
1773573125192754400,8.82775439453125,0.0011983871227130294,-0.001997311832383275,-0.0018641578499227762
1773573125202904600,8.837904541015625,0.0011983871227130294,-0.001997311832383275,-0.0007989247678779066
1773573125213076200,8.848076171875,0.0011983871227130294,-0.0009320789249613881,-0.0007989247678779066
1773573125223228400,8.858228515625,0.0001331541279796511,0.0001331541279796511,-0.0007989247678779066
1773573125233366000,8.868365966796874,0.0001331541279796511,-0.001997311832383275,-0.0018641578499227762
1773573125243516700,8.8785166015625,0.0001331541279796511,0.0011983871227130294,-0.0018641578499227762
1773573125253662500,8.888662353515626,0.0001331541279796511,0.006524552125483751,-0.0007989247678779066
1773573125263812900,8.898812744140624,0.0001331541279796511,0.004394086077809334,-0.0007989247678779066
1773573125273964300,8.90896435546875,0.0001331541279796511,0.00226362026296556,0.0002663082559593022
1773573125284114700,8.91911474609375,0.0001331541279796511,0.0033288532868027687,0.00133154122158885
1773573125294261500,8.929261474609374,0.0001331541279796511,0.0001331541279796511,0.00133154122158885
1773573125304411400,8.939411376953124,0.0001331541279796511,-0.0030625448562204838,-0.0007989247678779066
1773573125314564900,8.94956494140625,0.0001331541279796511,-0.0030625448562204838,-0.0007989247678779066
1773573125324715300,8.95971533203125,0.0001331541279796511,-0.004127778112888336,-0.0007989247678779066
1773573125334867000,8.969866943359374,0.0011983871227130294,-0.004127778112888336,-0.0007989247678779066
1773573125345017300,8.980017333984375,-0.0009320789249613881,-0.001997311832383275,-0.0007989247678779066
1773573125355176400,8.990176513671875,0.0001331541279796511,0.00226362026296556,-0.0018641578499227762
1773573125365327600,9.00032763671875,0.0011983871227130294,-0.0009320789249613881,-0.0007989247678779066
1773573125375480600,9.01048046875,0.0011983871227130294,0.0033288532868027687,-0.002929390873759985
1773573125385632300,9.02063232421875,0.0001331541279796511,0.008655018173158169,-0.0018641578499227762
1773573125395770600,9.0307705078125,0.0001331541279796511,0.0033288532868027687,-0.0007989247678779066
1773573125405920800,9.040920654296874,0.0001331541279796511,0.0011983871227130294,-0.0007989247678779066
1773573125416078800,9.051078857421874,0.0011983871227130294,0.005459319334477186,-0.0007989247678779066
1773573125426229800,9.061229736328125,0.0011983871227130294,0.0001331541279796511,-0.0018641578499227762
1773573125436374500,9.07137451171875,0.0001331541279796511,-0.0030625448562204838,-0.002929390873759985
1773573125446525000,9.08152490234375,0.0001331541279796511,0.0001331541279796511,-0.0018641578499227762
1773573125456669400,9.09166943359375,0.0001331541279796511,0.0001331541279796511,-0.0007989247678779066
1773573125466819000,9.101819091796875,-0.0009320789249613881,-0.0009320789249613881,-0.0018641578499227762
1773573125476971000,9.111970947265625,0.0001331541279796511,-0.0009320789249613881,-0.0018641578499227762
1773573125487121200,9.12212109375,0.0011983871227130294,0.0033288532868027687,0.0002663082559593022
1773573125497275100,9.132275146484375,0.0001331541279796511,0.005459319334477186,0.0002663082559593022
1773573125507425500,9.142425537109375,0.0001331541279796511,0.005459319334477186,0.0002663082559593022
1773573125517594400,9.152594482421875,0.0001331541279796511,0.0033288532868027687,0.0002663082559593022
1773573125527746600,9.16274658203125,0.0001331541279796511,0.00226362026296556,0.0002663082559593022
1773573125537872600,9.17287255859375,0.0001331541279796511,-0.0009320789249613881,-0.0007989247678779066
1773573125548022000,9.18302197265625,0.0001331541279796511,-0.001997311832383275,0.00133154122158885
1773573125558175500,9.193175537109376,-0.0009320789249613881,-0.001997311832383275,0.00133154122158885
1773573125568325400,9.203325439453126,-0.0009320789249613881,-0.005193010903894901,-0.0007989247678779066
1773573125578474200,9.21347412109375,0.0011983871227130294,-0.004127778112888336,-0.0018641578499227762
1773573125588624100,9.2236240234375,0.0011983871227130294,0.0001331541279796511,-0.0007989247678779066
1773573125598780000,9.23377978515625,0.0011983871227130294,-0.0009320789249613881,-0.0018641578499227762
1773573125608930300,9.243930419921876,0.0011983871227130294,-0.0009320789249613881,-0.0007989247678779066
1773573125619088400,9.25408837890625,0.0001331541279796511,-0.0009320789249613881,0.0002663082559593022
1773573125629239600,9.264239501953124,0.0001331541279796511,0.0001331541279796511,-0.0007989247678779066
1773573125639394000,9.27439404296875,0.0001331541279796511,-0.0009320789249613881,0.0002663082559593022
1773573125649545500,9.28454541015625,0.0011983871227130294,-0.0030625448562204838,0.0002663082559593022
1773573125659681000,9.294680908203125,0.0011983871227130294,-0.004127778112888336,0.0002663082559593022
1773573125669831000,9.304830810546875,0.0001331541279796511,-0.001997311832383275,0.0002663082559593022
1773573125679990800,9.31499072265625,0.0011983871227130294,0.00226362026296556,-0.0007989247678779066
1773573125690142000,9.325141845703126,0.0001331541279796511,0.0033288532868027687,-0.0018641578499227762
1773573125700284700,9.33528466796875,0.0011983871227130294,0.00226362026296556,-0.0018641578499227762
1773573125710434800,9.345434814453125,0.0011983871227130294,0.0033288532868027687,-0.002929390873759985
1773573125720595200,9.35559521484375,0.0001331541279796511,0.0011983871227130294,-0.0018641578499227762
1773573125730746000,9.36574609375,0.0001331541279796511,-0.001997311832383275,-0.0007989247678779066
1773573125740890600,9.375890625,0.0011983871227130294,-0.0009320789249613881,-0.0007989247678779066
1773573125751041300,9.386041259765625,0.0001331541279796511,0.00226362026296556,-0.0007989247678779066
1773573125761188600,9.396188720703124,0.0001331541279796511,0.0033288532868027687,-0.0007989247678779066
1773573125771338800,9.4063388671875,0.0001331541279796511,0.004394086077809334,-0.0018641578499227762
1773573125781488000,9.416488037109374,0.0011983871227130294,0.004394086077809334,-0.0018641578499227762
1773573125791638300,9.42663818359375,0.0011983871227130294,0.00226362026296556,-0.0018641578499227762
1773573125801791500,9.43679150390625,0.0011983871227130294,0.0011983871227130294,-0.0007989247678779066
1773573125811941600,9.446941650390626,0.0011983871227130294,-0.001997311832383275,-0.0007989247678779066
1773573125822105000,9.45710498046875,0.0001331541279796511,-0.0030625448562204838,-0.0018641578499227762
1773573125832256800,9.4672568359375,0.0001331541279796511,-0.0009320789249613881,-0.0018641578499227762
1773573125842395600,9.477395751953125,0.0001331541279796511,-0.0009320789249613881,-0.0007989247678779066
1773573125852546000,9.487546142578125,-0.0009320789249613881,-0.0009320789249613881,-0.0018641578499227762
1773573125862695200,9.497695068359375,0.0001331541279796511,0.0033288532868027687,-0.0007989247678779066
1773573125872845300,9.50784521484375,0.0011983871227130294,0.004394086077809334,0.0002663082559593022
1773573125883008300,9.51800830078125,0.0011983871227130294,0.0033288532868027687,0.0002663082559593022
1773573125893159700,9.52815966796875,0.0001331541279796511,-0.0009320789249613881,0.00133154122158885
1773573125903306500,9.538306396484375,0.0011983871227130294,-0.0030625448562204838,0.00133154122158885
1773573125913457700,9.548457763671875,0.00226362026296556,-0.0030625448562204838,-0.0007989247678779066
1773573125923611600,9.558611572265624,0.0001331541279796511,-0.005193010903894901,-0.0007989247678779066
1773573125933763000,9.56876318359375,0.0001331541279796511,-0.004127778112888336,-0.0007989247678779066
1773573125943901000,9.57890087890625,0.0011983871227130294,-0.001997311832383275,-0.0007989247678779066
1773573125954051000,9.589051025390624,0.0001331541279796511,-0.0030625448562204838,0.0002663082559593022
1773573125964207000,9.59920703125,0.0011983871227130294,-0.0009320789249613881,0.0002663082559593022
1773573125974357800,9.609357666015624,0.0001331541279796511,0.0001331541279796511,-0.0007989247678779066
1773573125984512800,9.6195126953125,0.0001331541279796511,-0.0009320789249613881,-0.0007989247678779066
1773573125994663700,9.62966357421875,0.0001331541279796511,-0.0009320789249613881,0.00133154122158885
1773573126004801800,9.6398017578125,-0.0009320789249613881,0.0001331541279796511,0.0002663082559593022
1773573126014951400,9.649951416015625,0.0001331541279796511,0.0001331541279796511,0.0002663082559593022
1773573126025124900,9.660124755859375,0.0001331541279796511,0.0011983871227130294,-0.0007989247678779066
1773573126035277000,9.670277099609375,0.0001331541279796511,0.00226362026296556,-0.0018641578499227762
1773573126045420800,9.6804208984375,0.0001331541279796511,0.0011983871227130294,-0.0018641578499227762
1773573126055572200,9.690572265625,-0.0009320789249613881,0.0033288532868027687,0.0002663082559593022
1773573126065720000,9.700719970703124,0.0001331541279796511,0.0033288532868027687,-0.0007989247678779066
1773573126075871200,9.710871337890625,0.0011983871227130294,0.00226362026296556,0.0002663082559593022
1773573126086017300,9.721017333984374,0.0001331541279796511,0.0011983871227130294,0.0002663082559593022
1773573126096167700,9.731167724609374,0.0011983871227130294,0.0011983871227130294,-0.0018641578499227762
1773573126106322700,9.74132275390625,0.0001331541279796511,-0.0009320789249613881,-0.002929390873759985
1773573126116473600,9.7514736328125,0.0011983871227130294,-0.004127778112888336,-0.0018641578499227762
1773573126126624300,9.761624267578124,0.00226362026296556,0.0001331541279796511,-0.0007989247678779066
1773573126136775200,9.771775146484375,0.0001331541279796511,0.0033288532868027687,0.0002663082559593022
1773573126146926300,9.78192626953125,0.0001331541279796511,0.0011983871227130294,-0.0007989247678779066
1773573126157077200,9.7920771484375,0.0011983871227130294,0.0011983871227130294,-0.0007989247678779066
1773573126167227600,9.8022275390625,0.0011983871227130294,0.00226362026296556,-0.0007989247678779066
1773573126177378600,9.812378662109374,-0.0009320789249613881,0.0001331541279796511,-0.0007989247678779066
1773573126187527400,9.82252734375,-0.001997311832383275,0.0011983871227130294,-0.0007989247678779066
1773573126197678000,9.832677978515624,-0.0009320789249613881,0.00226362026296556,-0.0007989247678779066
1773573126207829200,9.842829345703125,0.0001331541279796511,0.004394086077809334,0.0002663082559593022
1773573126217980000,9.85297998046875,0.0011983871227130294,0.0033288532868027687,-0.0007989247678779066
1773573126228128300,9.863128173828125,0.0001331541279796511,0.0033288532868027687,-0.0007989247678779066
1773573126238278700,9.873278564453125,0.0001331541279796511,0.0033288532868027687,0.0002663082559593022
1773573126248430800,9.883430908203126,0.0011983871227130294,-0.0009320789249613881,0.00133154122158885
1773573126258581500,9.89358154296875,0.0001331541279796511,-0.001997311832383275,-0.0007989247678779066
1773573126268720400,9.903720458984376,0.0011983871227130294,-0.0009320789249613881,-0.0018641578499227762
1773573126278869800,9.913869873046876,0.0011983871227130294,0.0001331541279796511,-0.0007989247678779066
1773573126289006800,9.9240068359375,-0.0009320789249613881,0.0011983871227130294,0.00133154122158885
1773573126299155000,9.934155029296875,-0.0009320789249613881,0.0011983871227130294,0.00133154122158885
1773573126309331000,9.9443310546875,0.0011983871227130294,0.0033288532868027687,0.0034620072692632675
1773573126319481900,9.95448193359375,0.0011983871227130294,0.006524552125483751,0.0023967742454260588
1773573126329619000,9.964618896484374,-0.0009320789249613881,0.004394086077809334,-0.0007989247678779066
1773573126339768300,9.974768310546875,0.0001331541279796511,-0.0009320789249613881,-0.0018641578499227762
1773573126349924400,9.98492431640625,0.0001331541279796511,0.0001331541279796511,-0.0007989247678779066
1773573126360074800,9.99507470703125,0.0001331541279796511,0.0011983871227130294,-0.0018641578499227762
1773573126370226400,10.005226318359375,0.0001331541279796511,0.00226362026296556,0.0002663082559593022
1773573126380376800,10.015376953125,0.0001331541279796511,0.00226362026296556,-0.0007989247678779066
1773573126390531800,10.02553173828125,0.0001331541279796511,0.0011983871227130294,-0.0018641578499227762
1773573126400682800,10.035682861328125,0.0001331541279796511,0.0033288532868027687,-0.0018641578499227762
1773573126410825200,10.0458251953125,0.0011983871227130294,0.0033288532868027687,-0.0018641578499227762
1773573126420975000,10.05597509765625,0.0011983871227130294,0.005459319334477186,-0.0007989247678779066
1773573126431127800,10.0661279296875,0.0001331541279796511,0.004394086077809334,0.0002663082559593022
1773573126441278200,10.0762783203125,0.0011983871227130294,0.004394086077809334,0.0002663082559593022
1773573126451433500,10.08643359375,0.0011983871227130294,0.0011983871227130294,-0.0007989247678779066
1773573126461584400,10.09658447265625,0.0001331541279796511,0.0011983871227130294,0.0002663082559593022
1773573126471731000,10.10673095703125,0.0001331541279796511,0.0011983871227130294,0.00133154122158885
1773573126481881300,10.11688134765625,0.0001331541279796511,-0.0030625448562204838,0.0002663082559593022
1773573126492041500,10.12704150390625,0.0011983871227130294,-0.001997311832383275,0.0002663082559593022
1773573126502193000,10.13719287109375,0.0001331541279796511,-0.0009320789249613881,0.0002663082559593022
1773573126512339200,10.147339111328124,0.0001331541279796511,-0.004127778112888336,-0.0007989247678779066
1773573126522489900,10.15748974609375,0.0001331541279796511,-0.0030625448562204838,-0.002929390873759985
1773573126532631600,10.167631591796875,0.0001331541279796511,-0.0009320789249613881,-0.0018641578499227762
1773573126542781400,10.177781494140625,0.0001331541279796511,-0.005193010903894901,-0.0007989247678779066
1773573126552948700,10.18794873046875,0.0001331541279796511,-0.009453942999243736,-0.0007989247678779066
1773573126563100400,10.198100341796875,0.0011983871227130294,-0.007323476951569319,-0.0007989247678779066
1773573126573238000,10.208238037109375,0.0011983871227130294,-0.005193010903894901,-0.0007989247678779066
1773573126583388200,10.21838818359375,-0.0009320789249613881,-0.008388710208237171,0.0002663082559593022
1773573126593550300,10.22855029296875,-0.0009320789249613881,-0.009453942999243736,0.00133154122158885
1773573126603702000,10.238701904296875,-0.0009320789249613881,-0.004127778112888336,0.0002663082559593022
1773573126613835000,10.2488349609375,0.0001331541279796511,-0.005193010903894901,-0.0018641578499227762
1773573126623984600,10.258984619140625,0.0001331541279796511,-0.009453942999243736,-0.0007989247678779066
1773573126634136800,10.26913671875,-0.0009320789249613881,-0.010519175790250301,-0.0007989247678779066
1773573126644286700,10.27928662109375,0.0001331541279796511,-0.012649642303586006,-0.0007989247678779066
1773573126654440000,10.28943994140625,0.00226362026296556,-0.012649642303586006,-0.0007989247678779066
1773573126664590000,10.299590087890625,0.00226362026296556,-0.011584409512579441,-0.0007989247678779066
1773573126674748400,10.30974853515625,0.0001331541279796511,-0.007323476951569319,-0.0018641578499227762
1773573126684899600,10.319899658203125,0.0011983871227130294,-0.007323476951569319,-0.0007989247678779066
1773573126695052800,10.330052734375,0.00226362026296556,-0.010519175790250301,0.0002663082559593022
1773573126705204000,10.340203857421875,0.0011983871227130294,-0.011584409512579441,0.00133154122158885
1773573126715337700,10.350337646484375,0.0001331541279796511,-0.014780107885599136,0.00133154122158885
1773573126725487400,10.3604873046875,0.0001331541279796511,-0.014780107885599136,0.0002663082559593022
1773573126735643000,10.370642822265625,0.0011983871227130294,-0.009453942999243736,-0.0007989247678779066
1773573126745793000,10.38079296875,0.0011983871227130294,-0.012649642303586006,0.00133154122158885
1773573126755955500,10.39095556640625,0.0011983871227130294,-0.014780107885599136,0.0002663082559593022
1773573126766107000,10.40110693359375,0.0001331541279796511,-0.010519175790250301,-0.0007989247678779066
1773573126776256800,10.4112568359375,0.0001331541279796511,-0.009453942999243736,-0.0018641578499227762
1773573126786408000,10.421407958984375,0.0001331541279796511,-0.008388710208237171,-0.0018641578499227762
1773573126796566000,10.43156591796875,0.0011983871227130294,-0.008388710208237171,-0.0007989247678779066
1773573126806718000,10.441718017578125,0.0011983871227130294,-0.007323476951569319,-0.002929390873759985
1773573126816847000,10.45184716796875,0.00226362026296556,-0.006258244160562754,-0.0018641578499227762
1773573126826996700,10.461996826171875,0.00226362026296556,-0.001997311832383275,0.00133154122158885
1773573126837144800,10.472144775390625,0.0001331541279796511,0.006524552125483751,0.00133154122158885
1773573126847294200,10.482294189453125,0.0001331541279796511,0.010785484686493874,0.00133154122158885
1773573126857448400,10.492448486328126,0.0011983871227130294,0.006524552125483751,0.00133154122158885
1773573126867598300,10.502598388671874,0.0011983871227130294,0.004394086077809334,0.00133154122158885
1773573126877752800,10.5127529296875,0.0001331541279796511,0.009720250964164734,0.0002663082559593022
1773573126887903200,10.5229033203125,0.0011983871227130294,0.010785484686493874,0.0002663082559593022
1773573126898060500,10.533060546875,0.0011983871227130294,0.004394086077809334,-0.0007989247678779066
1773573126908211700,10.543211669921876,0.0011983871227130294,0.006524552125483751,-0.0007989247678779066
1773573126918352600,10.5533525390625,0.0001331541279796511,0.016111649572849274,-0.0018641578499227762
1773573126928502800,10.563502685546876,0.0001331541279796511,0.013981183059513569,-0.002929390873759985
1773573126938653400,10.5736533203125,0.0001331541279796511,0.004394086077809334,-0.0007989247678779066
1773573126948803600,10.583803466796875,0.0001331541279796511,0.015046416781842709,0.00133154122158885
1773573126958959900,10.5939599609375,0.0011983871227130294,0.028894444927573204,0.0002663082559593022
1773573126969110500,10.604110595703125,0.0011983871227130294,0.024633513763546944,0.00133154122158885
1773573126979253500,10.61425341796875,0.0001331541279796511,0.019307348877191544,0.0034620072692632675
1773573126989403400,10.6244033203125,0.0001331541279796511,0.03209014609456062,0.00133154122158885
1773573126999575600,10.634575439453124,0.0001331541279796511,0.03848154470324516,0.0002663082559593022
1773573127009727700,10.644727783203125,-0.0009320789249613881,0.036351077258586884,0.00133154122158885
1773573127019857000,10.65485693359375,-0.0009320789249613881,0.034220609813928604,0.00133154122158885
1773573127030006800,10.6650068359375,-0.0030625448562204838,0.034220609813928604,0.00133154122158885
1773573127040171000,10.6751708984375,-0.0030625448562204838,0.040612008422613144,0.0023967742454260588
1773573127050322400,10.685322509765625,-0.0030625448562204838,0.034220609813928604,0.00452724052593112
1773573127060461300,10.69546142578125,-0.004127778112888336,0.028894444927573204,0.0034620072692632675
1773573127070611200,10.705611083984374,-0.005193010903894901,0.03848154470324516,0.0002663082559593022
1773573127080781800,10.71578173828125,-0.006258244160562754,0.05232957378029823,0.00133154122158885
1773573127090934000,10.72593408203125,-0.006258244160562754,0.04913387447595596,0.0023967742454260588
1773573127101073400,10.736073486328126,-0.006258244160562754,0.04593817517161369,0.0034620072692632675
1773573127111224300,10.746224365234376,-0.004127778112888336,0.058720968663692474,0.0023967742454260588
1773573127121372400,10.756372314453126,-0.005193010903894901,0.08002562820911407,0.0034620072692632675
1773573127131522800,10.766522705078126,-0.007323476951569319,0.09174319356679916,0.005592473316937685
1773573127141665800,10.776665771484375,-0.008388710208237171,0.09067796170711517,0.005592473316937685
1773573127151815700,10.786815673828125,-0.007323476951569319,0.08961272984743118,0.00133154122158885
1773573127161967000,10.796967041015625,-0.005193010903894901,0.0768299326300621,-0.002929390873759985
1773573127172117000,10.807116943359375,-0.009453942999243736,0.07896039634943008,-0.0007989247678779066
1773573127182272000,10.81727197265625,-0.009453942999243736,0.08109086751937866,0.00133154122158885
1773573127192422400,10.82742236328125,-0.006258244160562754,0.08109086751937866,0.0002663082559593022
1773573127202582500,10.83758251953125,-0.008388710208237171,0.06830807030200958,-0.0061250897124409676
1773573127212734000,10.84773388671875,-0.010519175790250301,0.044872939586639404,-0.00719032296910882
1773573127222870300,10.857870361328125,-0.011584409512579441,0.016111649572849274,-0.00719032296910882
1773573127233020200,10.868020263671875,-0.014780107885599136,0.0011983871227130294,-0.012516488321125507
1773573127243175700,10.87817578125,-0.014780107885599136,0.010785484686493874,-0.015712186694145203
1773573127253326000,10.888326171875,-0.011584409512579441,0.036351077258586884,-0.015712186694145203
1773573127263489800,10.89848974609375,-0.011584409512579441,0.058720968663692474,-0.010386021807789803
1773573127273641500,10.908641357421875,-0.011584409512579441,0.07469946891069412,-0.002929390873759985
1773573127283794700,10.918794677734375,-0.012649642303586006,0.08641702681779861,0.0034620072692632675
1773573127293946600,10.928946533203124,-0.014780107885599136,0.0874822586774826,0.0034620072692632675
1773573127304091600,10.939091552734375,-0.017975807189941406,0.10985215753316879,-0.002929390873759985
1773573127314242800,10.949242919921875,-0.021171506494283676,0.14713531732559204,-0.011451254598796368
1773573127324395000,10.95939501953125,-0.026497671380639076,0.15352670848369598,-0.023168819025158882
1773573127334546400,10.96954638671875,-0.033954303711652756,0.1311568170785904,-0.03488638252019882
1773573127344692200,10.979692138671876,-0.041410934180021286,0.11198262125253677,-0.04234301298856735
1773573127354843000,10.9898427734375,-0.048867564648389816,0.10452599078416824,-0.0476691760122776
1773573127364995600,10.99999560546875,-0.050998032093048096,0.09067796170711517,-0.0476691760122776
1773573127375146800,11.010146728515625,-0.041410934180021286,0.041677240282297134,-0.04660394415259361
1773573127385301200,11.02030126953125,-0.022236740216612816,-0.008388710208237171,-0.0476691760122776
1773573127395395600,11.0303955078125,-0.004127778112888336,0.006524552125483751,-0.0476691760122776
1773573127405550800,11.04055078125,0.005459319334477186,0.05232957378029823,-0.05406057462096214
1773573127415702000,11.050701904296876,0.007589785382151604,0.05659050494432449,-0.07110430300235748
1773573127425872600,11.06087255859375,-0.0009320789249613881,0.08109086751937866,-0.09880036115646362
1773573127435992800,11.070992919921874,-0.017975807189941406,0.14393961429595947,-0.1306242048740387
1773573127456295400,11.09129541015625,-0.043541401624679565,0.23222079873085022,-0.16364642977714539
1773573127466493200,11.1014931640625,-0.040345702320337296,0.28441721200942993,-0.13808083534240723
1773573127476648000,11.11164794921875,-0.037150003015995026,0.172700896859169,-0.08814803510904312
1773573127486787600,11.12178759765625,-0.040345702320337296,0.08428656309843063,-0.04127778112888336
1773573127496941000,11.131941162109374,-0.035019535571336746,0.020372580736875534,-0.014646953903138638
1773573127507097000,11.14209716796875,-0.024367205798625946,-0.047802332788705826,-0.012516488321125507
1773573127517250800,11.152250732421875,-0.013714875094592571,-0.09786828607320786,-0.023168819025158882
1773573127527396600,11.162396728515626,0.0033288532868027687,-0.1351514458656311,-0.03382114693522453
1773573127537549600,11.172549560546875,0.004394086077809334,-0.17669552564620972,-0.0370168462395668
1773573127547690500,11.1826904296875,-0.0030625448562204838,-0.21717438101768494,-0.03169068321585655
1773573127557842200,11.19284228515625,-0.001997311832383275,-0.21397867798805237,-0.03275591507554054
1773573127568002300,11.203002197265626,-0.004127778112888336,-0.18202169239521027,-0.04340824484825134
1773573127578154800,11.21315478515625,-0.008388710208237171,-0.16497796773910522,-0.06790860742330551
1773573127588296000,11.2232958984375,-0.012649642303586006,-0.1468690037727356,-0.10505861043930054
1773573127598447400,11.233447265625,-0.023301972076296806,-0.11171631515026093,-0.14340700209140778
1773573127608597000,11.243596923828125,-0.044606633484363556,-0.08934641629457474,-0.17536398768424988
1773573127618748400,11.25374853515625,-0.04993279650807381,-0.06378082931041718,-0.1945381760597229
1773573127628908000,11.263907958984374,-0.038215234875679016,-0.030758604407310486,-0.20092958211898804
1773573127639060200,11.274060302734375,-0.027562905102968216,-0.012649642303586006,-0.20199480652809143
1773573127649215200,11.28421533203125,-0.025432437658309937,-0.010519175790250301,-0.20732097327709198
1773573127659367700,11.29436767578125,-0.023301972076296806,-0.0009320789249613881,-0.21371237933635712
1773573127669502700,11.304502685546876,-0.017975807189941406,0.010785484686493874,-0.22436471283435822
1773573127679653400,11.3146533203125,-0.016910573467612267,-0.008388710208237171,-0.2382127344608307
1773573127689784800,11.324784912109376,-0.013714875094592571,-0.052063263952732086,-0.2488650679588318
1773573127699933400,11.334933349609376,-0.001997311832383275,-0.09467258304357529,-0.2477998286485672
1773573127710111200,11.345111328125,-0.0009320789249613881,-0.12876003980636597,-0.23501703143119812
1773573127720263000,11.355262939453125,-0.006258244160562754,-0.13089050352573395,-0.22223423421382904
1773573127730417400,11.36541748046875,-0.004127778112888336,-0.10745538026094437,-0.2169080674648285
1773573127740569300,11.3755693359375,0.0011983871227130294,-0.06697652488946915,-0.20945143699645996
1773573127750713300,11.38571337890625,-0.004127778112888336,0.005459319334477186,-0.1956034153699875
1773573127760864500,11.395864501953126,-0.022236740216612816,0.08428656309843063,-0.1721682846546173
1773573127771007000,11.406007080078124,-0.03608476743102074,0.10772168636322021,-0.1423417627811432
1773573127781157400,11.416157470703125,-0.037150003015995026,0.08428656309843063,-0.11145000159740448
1773573127791314700,11.426314697265624,-0.043541401624679565,0.03848154470324516,-0.08175663650035858
1773573127801465600,11.436465576171875,-0.06697652488946915,-0.025432437658309937,-0.06258244067430496
1773573127811605500,11.44660546875,-0.07762885838747025,-0.037150003015995026,-0.04340824484825134
1773573127821755400,11.45675537109375,-0.07762885838747025,0.006524552125483751,-0.027429750189185143
1773573127831905300,11.4669052734375,-0.07017222791910172,0.06937330216169357,-0.017842652276158333
1773573127842055200,11.47705517578125,-0.050998032093048096,0.12583065032958984,-0.014646953903138638
1773573127852207900,11.487207763671876,-0.025432437658309937,0.15352670848369598,-0.015712186694145203
1773573127862358000,11.49735791015625,-0.006258244160562754,0.1631138026714325,-0.023168819025158882
1773573127872514600,11.5075146484375,0.0033288532868027687,0.19720126688480377,-0.03382114693522453
1773573127882665200,11.517665283203126,0.009720250964164734,0.26204732060432434,-0.05406057462096214
1773573127892813300,11.527813232421876,0.011850717477500439,0.3217003643512726,-0.08175663650035858
1773573127902964000,11.5379638671875,0.0033288532868027687,0.32276561856269836,-0.1093195378780365
1773573127913116000,11.548115966796875,-0.009453942999243736,0.29187384247779846,-0.1316894292831421
1773573127923266600,11.5582666015625,-0.023301972076296806,0.27269965410232544,-0.14553746581077576
1773573127933422300,11.56842236328125,-0.029693370684981346,0.28335198760032654,-0.15725502371788025
1773573127943573500,11.578573486328125,-0.03288906812667847,0.29506954550743103,-0.16790735721588135
1773573127953706000,11.5887060546875,-0.029693370684981346,0.256721168756485,-0.17855969071388245
1773573127963855000,11.598855224609375,-0.038215234875679016,0.1833532303571701,-0.183885857462883
1773573127974019000,11.60901904296875,-0.033954303711652756,0.15352670848369598,-0.1849510818719864
1773573127984169700,11.619169677734375,0.019307348877191544,0.19294032454490662,-0.19027724862098694
1773573127994318600,11.629318603515625,0.07150376588106155,0.21730753779411316,-0.2062557488679886
1773573128004469200,11.63946923828125,0.09600412845611572,0.17057043313980103,-0.22329947352409363
1773573128014617900,11.649617919921875,0.0874822586774826,0.05978620424866676,-0.23501703143119812
1773573128024768000,11.65976806640625,0.06404713541269302,-0.045671865344047546,-0.2360822707414627
1773573128034933500,11.66993359375,0.043807707726955414,-0.15219517052173615,-0.22329947352409363
1773573128045085400,11.68008544921875,0.029959678649902344,-0.24700090289115906,-0.18921200931072235
1773573128055217700,11.6902177734375,0.03209014609456062,-0.30345824360847473,-0.1402112990617752
1773573128065367600,11.700367431640625,0.044872939586639404,-0.3695026934146881,-0.08388710021972656
1773573128075523800,11.71052392578125,0.067242830991745,-0.4513925015926361,-0.022103585302829742
1773573128085674500,11.720674560546875,0.10239552706480026,-0.5302197337150574,0.04713656008243561
1773573128095823600,11.73082373046875,0.13435252010822296,-0.5824161767959595,0.12063764035701752
1773573128105974000,11.74097412109375,0.1418091505765915,-0.586677074432373,0.19094301760196686
1773573128116124700,11.751124755859376,0.1290263533592224,-0.5376763939857483,0.2516613006591797
1773573128126275300,11.761275390625,0.09493889659643173,-0.4758928418159485,0.3059881925582886
1773573128136433200,11.77143310546875,0.047003407031297684,-0.4205007255077362,0.35179319977760315
1773573128146584600,11.78158447265625,-0.009453942999243736,-0.3567199110984802,0.39333727955818176
1773573128156737000,11.791737060546875,-0.06804175674915314,-0.29067546129226685,0.42422905564308167
1773573128166888200,11.80188818359375,-0.12023817747831345,-0.2310224175453186,0.4423380196094513
1773573128177039000,11.8120390625,-0.15965180099010468,-0.1990654170513153,0.4444684684276581
1773573128187190500,11.8221904296875,-0.19480448961257935,-0.18734785914421082,0.4306204617023468
1773573128197333200,11.832333251953125,-0.21504391729831696,-0.15006470680236816,0.3997286856174469
1773573128207483600,11.842483642578125,-0.2118482142686844,-0.07017222791910172,0.35285845398902893
1773573128217626000,11.852626220703126,-0.2011958807706833,0.033155377954244614,0.28894445300102234
1773573128227775700,11.862775634765624,-0.19480448961257935,0.0991998240351677,0.21650861203670502
1773573128237943800,11.87294384765625,-0.18308693170547485,0.11517832428216934,0.1451379954814911
1773573128248095200,11.88309521484375,-0.1575213372707367,0.08428656309843063,0.0695064514875412
1773573128258228200,11.893228271484375,-0.1149120107293129,0.009720250964164734,-0.009320789016783237
1773573128268377900,11.9033779296875,-0.0723026916384697,-0.08828118443489075,-0.08814803510904312
1773573128278535700,11.91353564453125,-0.031823836266994476,-0.22356578707695007,-0.1625811904668808
1773573128288686000,11.92368603515625,0.016111649572849274,-0.37376365065574646,-0.22116900980472565
1773573128298834200,11.933834228515625,0.04593817517161369,-0.47056668996810913,-0.2573869228363037
1773573128308984300,11.943984375,0.051264338195323944,-0.4822842478752136,-0.2595174014568329
1773573128319141000,11.95414111328125,0.04913387447595596,-0.43647924065589905,-0.23501703143119812
1773573128329292000,11.9642919921875,0.0555252730846405,-0.35352420806884766,-0.19134248793125153
1773573128339443700,11.974443603515626,0.07576470077037811,-0.24487043917179108,-0.1316894292831421
1773573128349594600,11.9845947265625,0.10665645450353622,-0.12236864119768143,-0.06151720881462097
1773573128359733800,11.994733642578124,0.14287437498569489,0.016111649572849274,0.00133154122158885
1773573128369883600,12.004883544921874,0.15885287523269653,0.15991811454296112,0.05033225938677788
1773573128380035800,12.015035888671875,0.15459194779396057,0.3078523576259613,0.08335448056459427
1773573128390186000,12.02518603515625,0.14287437498569489,0.4452674090862274,0.09720251709222794
1773573128400343300,12.03534326171875,0.13328728079795837,0.5730953812599182,0.09720251709222794
1773573128410494000,12.045493896484375,0.12796111404895782,0.7232932448387146,0.10359390825033188
1773573128420637700,12.0556376953125,0.10239552706480026,0.8095771074295044,0.112115778028965
1773573128430787800,12.065787841796874,0.05232957378029823,0.8754884004592896,0.11850717663764954
1773573128440931300,12.075931396484375,-0.012649642303586006,0.9127715229988098,0.12489857524633408
1773573128451080700,12.086080810546875,-0.09041165560483932,0.9223586320877075,0.13981182873249054
1773573128461260800,12.0962607421875,-0.1564560979604721,0.9138367772102356,0.15685556828975677
1773573128471413200,12.106413330078125,-0.19693495333194733,0.8680317401885986,0.16750788688659668
1773573128481564000,12.11656396484375,-0.22463101148605347,0.6881405115127563,0.16750788688659668
