time,seconds_elapsed,z,y,x
1773573116625687000,0.26068701171875,0,0,0
1773573116635815400,0.2708154296875,0.0023641586303710938,-0.00448375940322876,0.004948168992996216
1773573116645966600,0.280966552734375,-0.030389785766601562,-0.005774259567260742,0.003583163022994995
1773573116656123000,0.291122802734375,-0.03362083435058594,-0.010972797870635986,-0.0005903542041778564
1773573116666276000,0.301276123046875,-0.011631965637207031,0.003286004066467285,-0.011623978614807129
1773573116676424000,0.311423828125,0.0062007904052734375,0.003333747386932373,-0.009155988693237305
1773573116686575000,0.3215751953125,0.009364128112792969,0.01970994472503662,-0.0032044649124145508
1773573116696741000,0.3317412109375,-0.004422187805175781,-0.0033470988273620605,0.001837402582168579
1773573116706898400,0.3418984375,-0.008234024047851562,-0.002613961696624756,0.014860540628433228
1773573116717021700,0.352021728515625,-0.011771202087402344,-0.006297588348388672,-0.016235053539276123
1773573116727165000,0.3621650390625,-0.010760307312011719,0.003446042537689209,-0.009841978549957275
1773573116737325300,0.3723251953125,0.007620811462402344,0.01699066162109375,0.00032660365104675293
1773573116747475700,0.382475830078125,-0.001880645751953125,-0.0014305710792541504,-0.003342747688293457
1773573116757629400,0.39262939453125,0.015956878662109375,-0.009553313255310059,-0.01566237211227417
1773573116767781000,0.402781005859375,0.02373790740966797,-0.012508869171142578,-0.00947803258895874
1773573116777923800,0.412923828125,-0.00028133392333984375,-0.01544344425201416,-0.017076194286346436
1773573116788072000,0.423072021484375,-0.01836681365966797,-0.00043785572052001953,-0.03781411051750183
1773573116798214700,0.433214599609375,-0.02645111083984375,-0.00455707311630249,-0.03944218158721924
1773573116808360400,0.4433603515625,-0.006954193115234375,-0.01764655113220215,-0.027797996997833252
1773573116818527700,0.45352783203125,-0.01117706298828125,0.00605243444442749,-0.012348800897598267
1773573116828682200,0.46368212890625,-0.0015573501586914062,0.0013805031776428223,-0.015815049409866333
1773573116838829800,0.473829833984375,0.007633209228515625,-0.012318551540374756,-0.028402477502822876
1773573116848981500,0.4839814453125,-0.0064411163330078125,-0.0072318315505981445,-0.013316035270690918
1773573116859132000,0.4941318359375,-0.019941329956054688,0.002319514751434326,0.005502671003341675
1773573116869283000,0.504282958984375,-0.009947776794433594,-0.002395331859588623,0.028269022703170776
1773573116879428600,0.5144287109375,0.00885009765625,-0.0023323893547058105,0.02268892526626587
1773573116889577500,0.524577392578125,-0.009920120239257812,-0.0023770928382873535,0.008228927850723267
1773573116899744800,0.534744873046875,-0.009560585021972656,0.016045808792114258,0.0034296512603759766
1773573116909901000,0.544901123046875,-0.0046176910400390625,0.01556938886642456,0.017285555601119995
1773573116920034800,0.555034912109375,0.018654823303222656,-0.0032898783683776855,0.017025411128997803
1773573116930182000,0.565181884765625,-0.009775161743164062,-0.01680392026901245,-0.0019550323486328125
1773573116940336600,0.575336669921875,-0.00019359588623046875,-0.020946979522705078,-0.0017815828323364258
1773573116950487000,0.585487060546875,0.004452705383300781,-0.006510317325592041,-0.0060610175132751465
1773573116960639500,0.595639404296875,-0.009627342224121094,-0.015639424324035645,-0.014970332384109497
1773573116970790000,0.605789794921875,0.004608154296875,-0.01987367868423462,0.008622437715530396
1773573116980933600,0.61593359375,-0.004832267761230469,0.004032611846923828,-0.0010284483432769775
1773573116991083300,0.626083251953125,0.018575668334960938,-0.005312860012054443,0.00396159291267395
1773573117001223200,0.63622314453125,0.02738189697265625,0.008994460105895996,-0.00039130449295043945
1773573117011371800,0.646371826171875,0.007991790771484375,0.023044347763061523,0.009055227041244507
1773573117021542700,0.656542724609375,-0.010919570922851562,0.027528822422027588,-0.00964471697807312
1773573117031693800,0.66669384765625,0.0032930374145507812,0.018215179443359375,0.00968429446220398
1773573117041844500,0.676844482421875,0.012502670288085938,0.009134113788604736,-0.004368424415588379
1773573117051995400,0.686995361328125,-0.01588726043701172,0.009309470653533936,-0.013412028551101685
1773573117062153500,0.697153564453125,-0.010884284973144531,-0.01401519775390625,-0.003331989049911499
1773573117072305000,0.707304931640625,0.0033578872680664062,-0.01798945665359497,0.0018246769905090332
1773573117082460200,0.717460205078125,-0.015493392944335938,-0.01720583438873291,-0.0025941431522369385
1773573117092612400,0.7276123046875,-0.010510444641113281,-0.0024911165237426758,0.007139295339584351
1773573117102762800,0.7377626953125,-0.0009403228759765625,-0.0022577643394470215,-0.020828276872634888
1773573117112914700,0.747914794921875,-0.005645751953125,-0.006625175476074219,-0.048218727111816406
1773573117123042800,0.758042724609375,-0.010239601135253906,0.007658958435058594,-0.06580808758735657
1773573117133192200,0.768192138671875,-0.014723777770996094,0.00737529993057251,-0.03634071350097656
1773573117143349000,0.778348876953125,0.009070396423339844,0.035066068172454834,-0.04042431712150574
1773573117153499400,0.78849951171875,0.004245758056640625,0.010465264320373535,-0.035257190465927124
1773573117163650000,0.798650146484375,-0.01927947998046875,0.009714484214782715,-0.0019921958446502686
1773573117173800400,0.808800537109375,-0.018896102905273438,0.013785958290100098,0.01217353343963623
1773573117183949600,0.818949462890625,-0.01851367950439453,0.01768547296524048,0.025986433029174805
1773573117194099700,0.829099609375,-0.01343536376953125,0.0261266827583313,0.0396614670753479
1773573117204264000,0.839263916015625,0.0056362152099609375,0.030035853385925293,0.053321123123168945
1773573117214415600,0.84941552734375,0.03376197814941406,0.039015352725982666,0.04342880845069885
1773573117224548600,0.859548583984375,0.05669593811035156,-0.017852306365966797,0.02920439839363098
1773573117234698200,0.8696982421875,0.008627891540527344,-0.0032508373260498047,0.010517388582229614
1773573117244841000,0.879841064453125,-0.03392314910888672,-0.003122568130493164,-0.021984398365020752
1773573117254993400,0.889993408203125,-0.009836196899414062,-0.0029923319816589355,-0.025908231735229492
1773573117265148200,0.900148193359375,0.013860702514648438,0.011157393455505371,-0.029870659112930298
1773573117275279000,0.910279052734375,-0.01932811737060547,-0.003287971019744873,-0.0009036362171173096
1773573117295578400,0.930578369140625,-0.07451915740966797,-0.018843412399291992,0.003687620162963867
1773573117305741300,0.9407412109375,-0.035500526428222656,-0.015096068382263184,-0.01080980896949768
1773573117315892200,0.950892333984375,0.01696300506591797,0.0031321048736572266,-0.010939478874206543
1773573117326054100,0.96105419921875,0.02144622802734375,-0.01170039176940918,-0.010955363512039185
1773573117336206300,0.971206298828125,-0.016503334045410156,0.006463050842285156,-0.025192737579345703
1773573117346356000,0.98135595703125,-0.0020055770874023438,0.03353321552276611,-0.00633653998374939
1773573117356508000,0.9915078125,0.035780906677246094,0.027187824249267578,0.007816582918167114
1773573117366654000,1.001654052734375,0.054076194763183594,0.007242798805236816,-0.011338084936141968
1773573117376805000,1.01180517578125,0.015587806701660156,0.011068761348724365,-0.011755317449569702
1773573117386953200,1.021953125,-0.02697277069091797,-0.013524353504180908,-0.016562044620513916
1773573117397104000,1.032104248046875,-0.0264739990234375,-0.00914829969406128,-0.007051050662994385
1773573117407251000,1.0422509765625,0.05875968933105469,-0.032676637172698975,0.025316834449768066
1773573117417401600,1.052401611328125,0.05781745910644531,0.0335504412651062,0.052636414766311646
1773573117427557400,1.062557373046875,-0.03726482391357422,0.05096322298049927,0.06149852275848389
1773573117437708300,1.072708251953125,-0.1590099334716797,0.025388777256011963,0.0236627459526062
1773573117447843000,1.082843017578125,-0.010355949401855469,0.010286927223205566,0.018681466579437256
1773573117457992400,1.092992431640625,0.19699668884277344,0.010085642337799072,0.004254281520843506
1773573117468182500,1.1031826171875,0.07598018646240234,0.03333425521850586,-0.03276047110557556
1773573117478336000,1.1133359375,-0.10420703887939453,0.00900179147720337,-0.0319003164768219
1773573117488447700,1.12344775390625,-0.06475543975830078,0.00851517915725708,0.010492652654647827
1773573117498597000,1.13359716796875,0.025836944580078125,0.002798914909362793,0.001334458589553833
1773573117508776000,1.14377587890625,0.016038894653320312,-0.012346029281616211,-0.0639643669128418
1773573117518928400,1.153928466796875,-0.026508331298828125,0.010536730289459229,-0.026043683290481567
1773573117529081600,1.16408154296875,-0.011822700500488281,-0.000022113323211669922,0.015633434057235718
1773573117539234000,1.174234130859375,-0.020940780639648438,-0.010512948036193848,-0.02279791235923767
1773573117549382700,1.184382568359375,-0.03457164764404297,-0.021144330501556396,-0.05168315768241882
1773573117559534600,1.19453466796875,-0.03380298614501953,-0.04122811555862427,-0.06197267770767212
1773573117569683200,1.20468310546875,-0.023613929748535156,-0.018699169158935547,-0.03463718295097351
1773573117579835000,1.2148349609375,-0.008877754211425781,-0.024909794330596924,-0.021867305040359497
1773573117589983500,1.2249833984375,0.015054702758789062,0.006548464298248291,-0.00030812621116638184
1773573117600135000,1.235135009765625,0.03388500213623047,0.009234368801116943,0.044322073459625244
1773573117610283300,1.245283203125,0.019392967224121094,0.021609067916870117,0.04644733667373657
1773573117620434200,1.25543408203125,0.014502525329589844,0.006049454212188721,0.05365297198295593
1773573117630585600,1.265585693359375,0.0049610137939453125,0.023813188076019287,0.047028541564941406
1773573117640736800,1.27573681640625,0.019080162048339844,0.01805400848388672,0.02679648995399475
1773573117650861600,1.285861572265625,0.0235137939453125,0.017412245273590088,-0.0211409330368042
1773573117661010200,1.29601025390625,0.04670429229736328,-0.0020666122436523438,-0.011648744344711304
1773573117671171600,1.306171630859375,0.050685882568359375,-0.0024826526641845703,0.006981551647186279
1773573117681321200,1.3163212890625,0.01691150665283203,-0.007491648197174072,-0.01206323504447937
1773573117691472400,1.326472412109375,-0.0068988800048828125,-0.0027962923049926758,-0.0072394609451293945
1773573117701622300,1.336622314453125,-0.030303955078125,0.025368034839630127,0.025539308786392212
1773573117711772000,1.34677197265625,-0.00154876708984375,0.034440815448760986,0.039137184619903564
1773573117721921800,1.356921875,0.03607749938964844,0.006317496299743652,0.0058383941650390625
1773573117732074500,1.367074462890625,0.02129077911376953,-0.012027978897094727,-0.008062750101089478
1773573117742224600,1.377224609375,-0.01677227020263672,0.002684354782104492,-0.0030018985271453857
1773573117752394200,1.387394287109375,-0.03538322448730469,-0.0015737414360046387,-0.04020211100578308
1773573117762546400,1.39754638671875,0.00281524658203125,-0.015079140663146973,-0.03450152277946472
1773573117772675000,1.407675048828125,0.016875267028808594,-0.009945690631866455,-0.005553126335144043
1773573117782825000,1.417824951171875,-0.01634693145751953,-0.0004965662956237793,0.02259296178817749
1773573117792981000,1.42798095703125,-0.0019502639770507812,-0.0005139708518981934,0.02703079581260681
1773573117803131400,1.43813134765625,-0.04429817199707031,-0.005347847938537598,0.008067816495895386
1773573117813279000,1.448279052734375,-0.038832664489746094,0.013337910175323486,0.036194831132888794
1773573117823429000,1.45842919921875,-0.0052318572998046875,0.003664374351501465,0.007566094398498535
1773573117833583400,1.468583251953125,0.004245758056640625,0.013198673725128174,-0.006363809108734131
1773573117843734000,1.478734130859375,0.0229949951171875,-0.005677640438079834,-0.010956406593322754
1773573117853893400,1.488893310546875,0.06027030944824219,-0.005400538444519043,-0.010876119136810303
1773573117864045000,1.499045166015625,0.026328086853027344,-0.0007358193397521973,-0.02041405439376831
1773573117874183200,1.50918310546875,-0.030582427978515625,0.013168871402740479,0.007867902517318726
1773573117884333300,1.519333251953125,-0.030050277709960938,0.017528414726257324,0.03567811846733093
1773573117894482700,1.529482666015625,-0.020130157470703125,0.01249784231185913,0.03980201482772827
1773573117904632600,1.539632568359375,-0.010396003723144531,-0.02060067653656006,-0.002908647060394287
1773573117914786300,1.549786376953125,-0.014929771423339844,-0.015582859516143799,-0.02167639136314392
1773573117924936700,1.559936767578125,0.022985458374023438,0.008397877216339111,-0.02632567286491394
1773573117935098400,1.570098388671875,0.03200531005859375,0.022561967372894287,-0.035294175148010254
1773573117945250000,1.58025,0.017353057861328125,0.022260069847106934,-0.002047806978225708
1773573117955386400,1.590386474609375,0.007670402526855469,0.007837295532226562,0.02552095055580139
1773573117965536300,1.600536376953125,0.021691322326660156,0.026511192321777344,0.010459840297698975
1773573117975688000,1.61068798828125,-0.02101612091064453,-0.002415776252746582,-0.018276304006576538
1773573117985838000,1.620838134765625,-0.04419422149658203,-0.007109642028808594,-0.0041561126708984375
1773573117995987500,1.630987548828125,-0.0058078765869140625,-0.0020005106925964355,0.024070680141448975
1773573118006137600,1.6411376953125,0.031943321228027344,0.026462435722351074,0.00484505295753479
1773573118016288300,1.651288330078125,0.026683807373046875,0.007369399070739746,0.004870027303695679
1773573118026438400,1.6614384765625,0.03091716766357422,0.007532954216003418,0.0002899765968322754
1773573118036590300,1.67159033203125,0.04920196533203125,0.003085017204284668,0.009816259145736694
1773573118046740700,1.68174072265625,0.034229278564453125,0.00803285837173462,0.005041658878326416
1773573118056904400,1.691904541015625,-0.022879600524902344,0.02231574058532715,0.024097979068756104
1773573118067055900,1.702055908203125,-0.02725505828857422,-0.005813241004943848,0.005071759223937988
1773573118077192000,1.71219189453125,-0.03626537322998047,-0.0006178617477416992,0.010113000869750977
1773573118087342000,1.722342041015625,0.0019512176513671875,-0.00011748075485229492,-0.01788121461868286
1773573118097492200,1.7324921875,0.03951549530029297,-0.018247544765472412,-0.007748246192932129
1773573118107642400,1.742642333984375,0.024675369262695312,0.0014851093292236328,-0.026235520839691162
1773573118117781000,1.752781005859375,0.014803886413574219,0.0019499659538269043,-0.020975857973098755
1773573118127930000,1.76293017578125,0.019227027893066406,0.007120370864868164,-0.020624428987503052
1773573118138096000,1.77309619140625,-0.0046710968017578125,0.007501065731048584,-0.0015568435192108154
1773573118148246800,1.783246826171875,0.00007724761962890625,0.0032616853713989258,0.012396812438964844
1773573118158412500,1.79341259765625,-0.009367942810058594,-0.001114487648010254,-0.0067383646965026855
1773573118168564700,1.803564697265625,-0.02336883544921875,0.0038948655128479004,-0.015825241804122925
1773573118178707200,1.813707275390625,-0.018280982971191406,-0.010225892066955566,-0.001313716173171997
1773573118188858400,1.8238583984375,0.010252952575683594,-0.00967341661453247,-0.025024741888046265
1773573118199014700,1.8340146484375,0.03831195831298828,-0.004313170909881592,-0.01559680700302124
1773573118209166300,1.844166259765625,-0.0046977996826171875,0.0006454586982727051,-0.0017212629318237305
1773573118219306500,1.854306396484375,-0.014034271240234375,0.005521297454833984,0.012027531862258911
1773573118229457200,1.86445703125,0.014425277709960938,0.0012151002883911133,0.016225457191467285
1773573118239604500,1.8746044921875,0.0141754150390625,0.010889887809753418,0.010952532291412354
1773573118249754600,1.884754638671875,-0.033168792724609375,0.001577615737915039,0.01548042893409729
1773573118259917300,1.894917236328125,-0.013836860656738281,0.006859123706817627,0.01072394847869873
1773573118270068700,1.90506884765625,0.01928234100341797,-0.0018700957298278809,-0.0033625662326812744
1773573118280220400,1.915220458984375,0.023626327514648438,0.008068561553955078,0.010933220386505127
1773573118290372000,1.9253720703125,-0.014471054077148438,0.003616034984588623,-0.007977455854415894
1773573118300504800,1.9355048828125,-0.009568214416503906,-0.010180234909057617,-0.00742727518081665
1773573118310654200,1.945654296875,-0.00003814697265625,0.004605352878570557,-0.0023769140243530273
1773573118320811800,1.955811767578125,-0.0047893524169921875,0.023857712745666504,0.0024772584438323975
1773573118330962200,1.965962158203125,0.009345054626464844,0.024166762828826904,0.01226302981376648
1773573118341106000,1.97610595703125,0.004401206970214844,0.03388315439224243,0.01739281415939331
1773573118351255600,1.986255615234375,0.008953094482421875,0.015290498733520508,-0.0012094676494598389
1773573118361425400,1.99642529296875,0.027558326721191406,-0.007703423500061035,-0.0007624328136444092
1773573118371577000,2.0065771484375,0.008196830749511719,-0.006876647472381592,-0.009844839572906494
1773573118381708000,2.0167080078125,-0.024954795837402344,0.007961094379425049,-0.009471207857131958
1773573118391857700,2.026857666015625,-0.01987743377685547,0.013031423091888428,0.00031381845474243164
1773573118402010400,2.03701025390625,-0.014868736267089844,0.008392155170440674,-0.004189997911453247
1773573118412160300,2.04716015625,-0.009946823120117188,-0.0008827447891235352,-0.008506745100021362
1773573118422312200,2.057312255859375,-0.023957252502441406,-0.0003777742385864258,-0.003334343433380127
1773573118432462300,2.06746240234375,-0.018899917602539062,0.00011867284774780273,-0.002956777811050415
1773573118442612000,2.077612060546875,-0.004497528076171875,0.0005028247833251953,-0.01681530475616455
1773573118452762000,2.08776220703125,0.009676933288574219,0.010197937488555908,-0.007011890411376953
1773573118462900000,2.09789990234375,0.01891040802001953,-0.00862431526184082,-0.006685316562652588
1773573118473048800,2.108048828125,0.013879776000976562,0.015136539936065674,-0.006563931703567505
1773573118483228200,2.118228271484375,-0.028723716735839844,0.019571304321289062,0.0028522610664367676
1773573118493380000,2.128380126953125,-0.009425163269042969,0.014610648155212402,-0.006394445896148682
1773573118503517000,2.138516845703125,0.00012302398681640625,0.00533980131149292,-0.015806972980499268
1773573118513667300,2.148667236328125,-0.004601478576660156,0.010141730308532715,0.0032927989959716797
1773573118523817200,2.158817138671875,-0.009267807006835938,-0.01328808069229126,-0.010565876960754395
1773573118533967600,2.168967529296875,0.014394760131835938,-0.012784481048583984,-0.00535920262336731
1773573118544119000,2.179119140625,0.01415252685546875,0.006233096122741699,-0.009864509105682373
1773573118554269700,2.189269775390625,-0.009633064270019531,-0.003313720226287842,-0.023615896701812744
1773573118564439800,2.199439697265625,0.02345752716064453,0.006445586681365967,-0.041846275329589844
1773573118574592300,2.20959228515625,-0.005219459533691406,0.0067244768142700195,0.006051123142242432
1773573118584719400,2.21971923828125,-0.019280433654785156,-0.0026270151138305664,-0.01266661286354065
1773573118594869200,2.229869140625,-0.028410911560058594,0.007120251655578613,-0.0027243494987487793
1773573118605022200,2.240022216796875,0.00027561187744140625,-0.006733715534210205,-0.0024689137935638428
1773573118615172600,2.250172607421875,0.042618751525878906,-0.0016266107559204102,0.002490818500518799
1773573118625323000,2.260322998046875,0.008917808532714844,-0.006025850772857666,-0.020875662565231323
1773573118635473400,2.270473388671875,-0.0006618499755859375,-0.010351777076721191,0.012234330177307129
1773573118645622800,2.280622802734375,0.00872802734375,0.004328608512878418,0.012256413698196411
1773573118655773000,2.29077294921875,0.0038547515869140625,0.03258216381072998,-0.001751631498336792
1773573118665910500,2.30091064453125,0.0037927627563476562,0.03211319446563721,-0.011337459087371826
1773573118676059400,2.311059326171875,-0.03395366668701172,-0.010509014129638672,-0.0019453465938568115
1773573118686247200,2.3212470703125,-0.014583587646484375,-0.005342066287994385,-0.011111319065093994
1773573118696400000,2.33139990234375,0.03272724151611328,0.004450500011444092,-0.0016109943389892578
1773573118706543000,2.341543212890625,-0.005496978759765625,-0.0001500844955444336,0.017148256301879883
1773573118716695000,2.351695068359375,-0.024286270141601562,-0.009178519248962402,-0.015671581029891968
1773573118726848300,2.36184814453125,0.00435638427734375,0.009987056255340576,-0.02010902762413025
1773573118737000400,2.37200048828125,0.02311229705810547,0.019420087337493896,0.022397398948669434
1773573118747145000,2.38214501953125,-0.0008420944213867188,0.02398306131362915,0.003511577844619751
1773573118757296000,2.392296142578125,-0.01497650146484375,0.004823088645935059,-0.01024666428565979
1773573118767446000,2.402446044921875,-0.0053195953369140625,0.004920899868011475,-0.033712923526763916
1773573118777597000,2.412596923828125,0.00887298583984375,0.00511699914932251,-0.004881560802459717
1773573118787748000,2.422748046875,0.0181121826171875,0.005318045616149902,0.004827052354812622
1773573118797899300,2.432899169921875,0.01778888702392578,0.005515754222869873,-0.004668563604354858
1773573118808051700,2.4430517578125,0.008061408996582031,0.029249072074890137,0.004628300666809082
1773573118818203000,2.453202880859375,0.02201080322265625,0.010421693325042725,0.00936579704284668
1773573118828349400,2.463349365234375,0.0027713775634765625,0.010638236999511719,0.00941970944404602
1773573118838500000,2.4735,-0.025565147399902344,0.006142735481262207,0.009472817182540894
1773573118848654800,2.48365478515625,-0.011055946350097656,-0.01710796356201172,-0.009213149547576904
1773573118858806000,2.493805908203125,0.007928848266601562,0.011710941791534424,-0.03698912262916565
1773573118868956400,2.503956298828125,0.0030698776245117188,0.030532419681549072,-0.012723594903945923
1773573118879107600,2.514107666015625,-0.0017194747924804688,0.03501850366592407,0.0018243193626403809
1773573118889273600,2.524273681640625,-0.006421089172363281,0.006470084190368652,0.015921711921691895
1773573118899426300,2.53442626953125,-0.006328582763671875,-0.016998350620269775,0.0015325844287872314
1773573118909542700,2.544542724609375,-0.025071144104003906,-0.011820733547210693,0.006209731101989746
1773573118919691500,2.55469140625,-0.005841255187988281,0.01681417226791382,0.0015997588634490967
1773573118929843500,2.564843505859375,0.008352279663085938,0.030950069427490234,-0.00764194130897522
1773573118939992800,2.574992919921875,0.0034704208374023438,0.011886119842529297,0.0022166669368743896
1773573118950138000,2.58513818359375,0.0033864974975585938,-0.011672794818878174,0.021328061819076538
1773573118960287000,2.595286865234375,0.008012771606445312,-0.016004621982574463,0.007160872220993042
1773573118970444500,2.605444580078125,0.0031404495239257812,-0.015451371669769287,-0.006873995065689087
1773573118980594200,2.61559423828125,0.017188072204589844,-0.005490422248840332,-0.0019447803497314453
1773573118990755000,2.625755126953125,0.002758026123046875,0.004200637340545654,-0.01122334599494934
1773573119000906000,2.635906005859375,-0.020860671997070312,0.004416942596435547,-0.010826170444488525
1773573119011047000,2.646046875,-0.006413459777832031,-0.00007921457290649414,-0.0011225640773773193
1773573119021196800,2.65619677734375,-0.015746116638183594,0.014230132102966309,0.0038148164749145508
1773573119031346200,2.66634619140625,-0.015501022338867188,0.00004941225051879883,-0.029102861881256104
1773573119041496000,2.67649609375,-0.010540008544921875,-0.018707573413848877,-0.02861577272415161
1773573119051648500,2.6866484375,0.008471488952636719,-0.02784287929534912,-0.009294480085372925
1773573119061798700,2.696798583984375,0.008348464965820312,-0.003969728946685791,-0.009337633848190308
1773573119071954000,2.706953857421875,0.0035266876220703125,0.0148048996925354,0.004521608352661133
1773573119082104600,2.7171044921875,-0.010640144348144531,0.014428257942199707,0.013657450675964355
1773573119092253700,2.727253662109375,-0.01044464111328125,0.004636704921722412,0.003814607858657837
1773573119102404000,2.737404052734375,-0.0008516311645507812,0.009338140487670898,0.008269459009170532
1773573119112559600,2.7475595703125,-0.010260581970214844,0.009360790252685547,0.003224879503250122
1773573119122710500,2.75771044921875,-0.01952075958251953,0.009382963180541992,0.007889717817306519
1773573119132868900,2.767868896484375,-0.005092620849609375,0.01411348581314087,0.01739358901977539
1773573119143020500,2.7780205078125,0.01852130889892578,0.028078198432922363,0.017321735620498657
1773573119153163300,2.788163330078125,0.004100799560546875,0.013354659080505371,-0.006611853837966919
1773573119163314000,2.79831396484375,0.018179893493652344,-0.0058321356773376465,0.012022674083709717
1773573119173457000,2.808456787109375,-0.0056400299072265625,0.01286172866821289,0.011624366044998169
1773573119183606800,2.818606689453125,-0.014937400817871094,0.021930694580078125,-0.0031012296676635742
1773573119193762800,2.8287626953125,-0.009949684143066406,0.002592802047729492,-0.003551989793777466
1773573119203913500,2.83891357421875,-0.028595924377441406,0.011828780174255371,-0.008495539426803589
1773573119214057500,2.849057373046875,-0.028097152709960938,-0.0026320219039916992,-0.003939330577850342
1773573119224207400,2.859207275390625,0.01476287841796875,0.002090632915496826,0.019367218017578125
1773573119234369000,2.869369140625,0.019243240356445312,0.016051650047302246,0.009421020746231079
1773573119244520200,2.879520263671875,-0.009319305419921875,0.006233096122741699,0.013982564210891724
1773573119254660900,2.889660888671875,0.00026702880859375,-0.008130311965942383,-0.00047025084495544434
1773573119264811000,2.89981103515625,0.009685516357421875,0.0013924837112426758,0.004152148962020874
1773573119274966300,2.90996630859375,-0.004595756530761719,0.010752439498901367,-0.014837563037872314
1773573119285117000,2.920116943359375,0.014313697814941406,0.00593876838684082,-0.0005585551261901855
1773573119295265500,2.930265625,0.009365081787109375,0.0012053251266479492,0.008773893117904663
1773573119305416200,2.940416259765625,-0.019056320190429688,0.0013633966445922852,0.00863763689994812
1773573119315565000,2.95056494140625,0.0000972747802734375,0.006019413471221924,-0.010330736637115479
1773573119325715500,2.960715576171875,-0.0045948028564453125,0.019915103912353516,0.013178378343582153
1773573119335884300,2.97088427734375,-0.004504203796386719,0.0006147027015686035,0.00344732403755188
1773573119346036500,2.981036376953125,-0.01854419708251953,-0.008946657180786133,-0.006017357110977173
1773573119356177200,2.99117724609375,0.014746665954589844,0.01921635866165161,-0.015428215265274048
1773573119366328300,3.001328369140625,0.019239425659179688,0.0045323967933654785,-0.006055980920791626
1773573119376471600,3.011471435546875,-0.014039039611816406,0.004427015781402588,-0.0012365281581878662
1773573119386621700,3.02162158203125,-0.009090423583984375,0.004323363304138184,-0.020144373178482056
1773573119396770800,3.031770751953125,-0.00421142578125,0.004225552082061768,-0.024931222200393677
1773573119406920700,3.041920654296875,0.0005731582641601562,0.008833825588226318,0.008350402116775513
1773573119417069300,3.0520693359375,0.0052700042724609375,0.004048049449920654,0.008125156164169312
1773573119427219000,3.062218994140625,0.014600753784179688,-0.0006497502326965332,0.01249229907989502
1773573119437388000,3.072387939453125,0.009647369384765625,0.013561129570007324,0.02160707116127014
1773573119447539700,3.082539794921875,-0.014054298400878906,0.008596599102020264,0.002422541379928589
1773573119457672000,3.092671875,-0.004408836364746094,-0.010203242301940918,0.002184450626373291
1773573119467821800,3.10282177734375,0.00036334991455078125,-0.00043380260467529297,0.0114632248878479
1773573119477978600,3.112978515625,0.00032711029052734375,0.004560232162475586,0.020915478467941284
1773573119488129300,3.12312939453125,-0.004413604736328125,0.009479165077209473,-0.0028700828552246094
1773573119498273300,3.133273193359375,0.0003509521484375,0.02362912893295288,0.020826637744903564
1773573119508423200,3.143423095703125,0.014451980590820312,-0.00494617223739624,0.006683707237243652
1773573119518574000,3.153573974609375,0.004779815673828125,-0.00008511543273925781,-0.0073274970054626465
1773573119528724000,3.163723876953125,0.0046901702880859375,-0.0000095367431640625,-0.002382814884185791
1773573119538842400,3.17384228515625,0.004593849182128906,-0.004540383815765381,0.007187694311141968
1773573119559176000,3.194176025390625,-0.014149665832519531,0.014177203178405762,-0.011945784091949463
1773573119569329200,3.2043291015625,-0.004498481750488281,0.004489719867706299,0.002501070499420166
1773573119579477500,3.2144775390625,0.019113540649414062,0.004484951496124268,-0.0069398581981658936
1773573119589630200,3.224630126953125,0.009371757507324219,0.018610119819641113,0.026145905256271362
1773573119599767300,3.234767333984375,0.009198188781738281,0.018481969833374023,0.006981641054153442
1773573119609918500,3.24491845703125,0.009023666381835938,0.023168861865997314,0.016284465789794922
1773573119620083200,3.255083251953125,0.027685165405273438,-0.005286276340484619,0.00680619478225708
1773573119630235600,3.265235595703125,0.013075828552246094,-0.005019962787628174,0.002202242612838745
1773573119640401400,3.2754013671875,-0.0059986114501953125,0.009472131729125977,0.0021755099296569824
1773573119650555100,3.28555517578125,-0.010624885559082031,-0.01865077018737793,-0.007380008697509766
1773573119660683800,3.295683837890625,-0.015163421630859375,-0.013661086559295654,0.002377718687057495
1773573119670835200,3.305835205078125,0.01804351806640625,0.005475103855133057,-0.007069140672683716
1773573119681004000,3.316004150390625,0.027149200439453125,-0.0038506388664245605,-0.0023449361324310303
1773573119691157200,3.3261572265625,0.007851600646972656,0.0058130621910095215,0.007009297609329224
1773573119701284000,3.3362841796875,-0.011127471923828125,-0.00352323055267334,0.0021938085556030273
1773573119711434500,3.3464345703125,-0.0062389373779296875,-0.003390371799468994,0.01158440113067627
1773573119721591000,3.356591064453125,-0.0014362335205078125,-0.0032596588134765625,0.01150539517402649
1773573119731742200,3.3667421875,0.017404556274414062,0.015811383724212646,-0.007414668798446655
1773573119741902300,3.37690234375,0.02181720733642578,0.006209075450897217,-0.007289081811904907
1773573119752054300,3.38705419921875,0.012030601501464844,-0.012650489807128906,-0.007165580987930298
1773573119762191600,3.397191650390625,-0.0023097991943359375,-0.012361466884613037,-0.02567070722579956
1773573119772342300,3.40734228515625,-0.002277374267578125,-0.007368624210357666,-0.011115074157714844
1773573119782489900,3.41748974609375,0.007167816162109375,0.016475319862365723,-0.011023908853530884
1773573119792640000,3.427639892578125,0.0070343017578125,0.011670291423797607,-0.0014130175113677979
1773573119802794200,3.437794189453125,0.0021905899047851562,0.002232789993286133,-0.005976051092147827
1773573119812945000,3.44794482421875,0.0068569183349609375,-0.011860132217407227,0.017684459686279297
1773573119823091500,3.458091552734375,0.0020275115966796875,0.0024334192276000977,0.003481924533843994
1773573119833241600,3.46824169921875,0.00197601318359375,-0.002137482166290283,-0.0011706948280334473
1773573119843413000,3.4784130859375,-0.007479667663574219,0.026215791702270508,0.003583282232284546
1773573119853565200,3.488565185546875,-0.012054443359375,0.01622772216796875,0.017659306526184082
1773573119863711200,3.498711181640625,-0.0024347305297851562,-0.007611453533172607,-0.0014673471450805664
1773573119873863000,3.50886279296875,0.011730194091796875,0.016136646270751953,0.012580841779708862
1773573119884010500,3.519010498046875,-0.0026092529296875,0.0019201040267944336,0.012485116720199585
1773573119894162000,3.529161865234375,-0.021406173706054688,0.006675004959106445,-0.006555318832397461
1773573119904310300,3.539310302734375,-0.011637687683105469,-0.02160954475402832,-0.0017354488372802734
1773573119914461400,3.54946142578125,0.007380485534667969,-0.007045388221740723,-0.015726238489151
1773573119924617700,3.55961767578125,0.01667308807373047,-0.01166236400604248,-0.010649412870407104
1773573119934769200,3.56976904296875,0.0069599151611328125,-0.011285662651062012,-0.00565725564956665
1773573119944919300,3.579919189453125,-0.016716957092285156,0.017332136631011963,-0.014866113662719727
1773573119955070700,3.59007080078125,-0.007031440734863281,0.017121493816375732,-0.005095064640045166
1773573119965184800,3.600184814453125,-0.011624336242675781,0.016910016536712646,-0.005103856325149536
1773573119975332400,3.610332275390625,-0.0020275115966796875,0.0026805996894836426,-0.005008816719055176
1773573119985488600,3.620488525390625,-0.006728172302246094,0.0170440673828125,0.01402309536933899
1773573119995637200,3.63063720703125,0.007495880126953125,0.012229561805725098,0.0043821632862091064
1773573120005817900,3.64081787109375,0.012065887451171875,0.0027872323989868164,-0.00038948655128479004
1773573120015969800,3.6509697265625,0.011835098266601562,0.007731616497039795,0.004543662071228027
1773573120026123300,3.661123291015625,0.016332626342773438,0.017202258110046387,0.013887166976928711
1773573120036275200,3.671275146484375,-0.012208938598632812,0.03592813014984131,0.004352569580078125
1773573120046420200,3.681420166015625,0.0021066665649414062,0.007255911827087402,-0.0051271915435791016
1773573120056571600,3.691571533203125,-0.002651214599609375,0.016730427742004395,-0.00032317638397216797
1773573120066723600,3.7017236328125,-0.0026092529296875,-0.021142959594726562,-0.0004118978977203369
1773573120076874800,3.711874755859375,-0.0072689056396484375,-0.006694674491882324,-0.005207717418670654
1773573120087022000,3.72202197265625,0.0022678375244140625,-0.006513059139251709,-0.005207061767578125
1773573120097173000,3.732173095703125,0.0069370269775390625,-0.006330370903015137,0.01362001895904541
1773573120107319600,3.742319580078125,0.006819725036621094,0.003270566463470459,0.022708237171173096
1773573120117470000,3.752469970703125,0.0067005157470703125,0.008002877235412598,0.0034974515438079834
1773573120127631000,3.762631103515625,-0.00283050537109375,0.026774048805236816,-0.01077282428741455
1773573120137782500,3.772782470703125,-0.012202262878417969,-0.001849532127380371,-0.001270204782485962
1773573120147917800,3.782917724609375,-0.02614593505859375,0.0031758546829223633,0.008170157670974731
1773573120158067700,3.793067626953125,0.007224082946777344,0.008117854595184326,-0.010694295167922974
1773573120168214300,3.80321435546875,0.040045738220214844,-0.0012524127960205078,0.013132929801940918
1773573120178364000,3.813364013671875,0.006400108337402344,-0.01988774538040161,0.0036108791828155518
1773573120188515800,3.823515869140625,-0.012567520141601562,0.008873522281646729,0.008581489324569702
1773573120198665500,3.83366552734375,0.011167526245117188,0.008899688720703125,-0.02439972758293152
1773573120208821500,3.843821533203125,-0.012576103210449219,-0.0004875063896179199,-0.014565885066986084
1773573120218972000,3.853971923828125,-0.007663726806640625,-0.005113840103149414,0.0045212507247924805
1773573120229121800,3.864121826171875,0.01128387451171875,0.009279429912567139,0.00444793701171875
1773573120239272200,3.874272216796875,-0.012457847595214844,0.023328781127929688,0.004479885101318359
1773573120249421600,3.884421630859375,-0.0028429031372070312,-0.01465463638305664,-0.00018933415412902832
1773573120259572000,3.894572021484375,-0.012234687805175781,0.018832027912139893,-0.014301955699920654
1773573120269726200,3.904726318359375,0.006793022155761719,0.013987839221954346,-0.018866270780563354
1773573120279876900,3.914876953125,0.011386871337890625,0.013828873634338379,0.00018846988677978516
1773573120290023200,3.925023193359375,0.001773834228515625,0.008963942527770996,0.009612500667572021
1773573120300173300,3.93517333984375,-0.0029697418212890625,0.02301037311553955,0.00005301833152770996
1773573120310321400,3.9453212890625,-0.002925872802734375,0.0038666129112243652,0.009479314088821411
1773573120320471600,3.955471435546875,0.0018177032470703125,-0.0054367780685424805,-0.004794448614120483
1773573120330624000,3.9656240234375,0.030033111572265625,0.008857905864715576,-0.009421080350875854
1773573120340774100,3.975774169921875,0.010687828063964844,0.008788526058197021,0.014384984970092773
1773573120350933800,3.985933837890625,-0.0036296844482421875,-0.0007008910179138184,0.004946351051330566
1773573120361085000,3.9960849609375,-0.008292198181152344,0.008906185626983643,0.004873901605606079
1773573120371228400,4.006228515625,0.010669708251953125,-0.009898483753204346,-0.004718512296676636
1773573120381378600,4.016378662109375,0.015186309814453125,0.004570484161376953,-0.00462988018989563
1773573120391527000,4.02652685546875,0.000797271728515625,0.014085590839385986,-0.014056026935577393
1773573120401677300,4.03667724609375,-0.008643150329589844,-0.00009262561798095703,-0.0139237642288208
1773573120411831300,4.046831298828125,-0.008501052856445312,0.014117121696472168,0.014449894428253174
1773573120421981700,4.056981689453125,0.005767822265625,0.013960123062133789,-0.0001227855682373047
1773573120432128000,4.0671279296875,0.000957489013671875,-0.00021606683731079102,-0.0003267228603363037
1773573120442278100,4.077278076171875,0.015056610107421875,0.004678487777709961,-0.00513187050819397
1773573120452444700,4.087444580078125,-0.018140792846679688,0.009279131889343262,-0.010057598352432251
1773573120462596400,4.097596435546875,-0.008414268493652344,0.013907253742218018,-0.01019221544265747
1773573120472737000,4.107737060546875,-0.0035552978515625,0.01364976167678833,-0.010228216648101807
1773573120482887700,4.1178876953125,0.010652542114257812,0.013292431831359863,-0.0009506642818450928
1773573120493037800,4.128037841796875,-0.013050079345703125,0.0035156607627868652,0.003583580255508423
1773573120503188500,4.1381884765625,0.0012989044189453125,0.00342714786529541,-0.005987405776977539
1773573120513314000,4.14831396484375,-0.0034046173095703125,0.007940948009490967,-0.006284952163696289
1773573120523462100,4.158462158203125,0.0013666152954101562,0.012487292289733887,-0.0015656650066375732
1773573120533632000,4.168632080078125,0.04366302490234375,0.017483174800872803,-0.010433465242385864
1773573120543782100,4.1787822265625,0.08051013946533203,0.02281111478805542,-0.009633153676986694
1773573120553953500,4.18895361328125,-0.03853130340576172,0.022613704204559326,0.06042829155921936
1773573120564106000,4.19910595703125,-0.13673973083496094,-0.010953128337860107,0.07793739438056946
1773573120574242800,4.209242919921875,-0.035651206970214844,-0.062387168407440186,-0.06315478682518005
1773573120584393700,4.219393798828125,0.10149383544921875,-0.051856040954589844,-0.1140948235988617
1773573120594538800,4.229538818359375,0.019875526428222656,-0.009268224239349365,-0.06215676665306091
1773573120604689200,4.239689208984375,-0.07927799224853516,0.01868760585784912,-0.04760146141052246
1773573120614841900,4.249841796875,-0.0402374267578125,0.018133997917175293,-0.028788357973098755
1773573120624992500,4.259992431640625,0.04057884216308594,0.017381608486175537,0.05950802564620972
1773573120635138600,4.270138671875,0.08231067657470703,0.026479244232177734,0.07192400097846985
1773573120645288700,4.280288818359375,0.05261707305908203,0.03625768423080444,0.037983208894729614
1773573120655425000,4.290425048828125,-0.004840850830078125,0.027249693870544434,0.060895174741744995
1773573120665573600,4.30057373046875,-0.02840900421142578,0.027918517589569092,0.08864617347717285
1773573120675745300,4.310745361328125,0.004852294921875,0.014657318592071533,0.0465661883354187
1773573120685896200,4.320896240234375,0.023410797119140625,-0.031137585639953613,0.014809370040893555
1773573120696040700,4.331040771484375,-0.0006570816040039062,-0.0013486146926879883,-0.026364415884017944
1773573120706190800,4.34119091796875,-0.005482673645019531,-0.009932398796081543,-0.052517205476760864
1773573120716345000,4.351344970703125,-0.033768653869628906,-0.03229039907455444,-0.05039834976196289
1773573120726495700,4.361495849609375,-0.005031585693359375,-0.030945420265197754,-0.025596976280212402
1773573120736660500,4.371660400390625,0.01853466033935547,-0.024913251399993896,-0.0016252398490905762
1773573120746812700,4.381812744140625,-0.047766685485839844,-0.004744589328765869,0.022035419940948486
1773573120756966000,4.3919658203125,-0.09415340423583984,-0.008246779441833496,0.036092787981033325
1773573120767118000,4.4021181640625,-0.017370223999023438,0.012160241603851318,0.04531911015510559
1773573120777246200,4.41224609375,0.04398345947265625,0.008792638778686523,0.031247496604919434
1773573120787396000,4.42239599609375,0.03839397430419922,0.009981036186218262,-0.024541079998016357
1773573120797550000,4.432550048828125,0.018779754638671875,-0.007792294025421143,-0.018179744482040405
1773573120807700200,4.4427001953125,0.013634681701660156,0.007586300373077393,-0.012132972478866577
1773573120817852400,4.452852294921875,0.0038785934448242188,0.027317285537719727,-0.029841572046279907
1773573120828002800,4.4630029296875,-0.015135765075683594,0.03740209341049194,-0.023808449506759644
1773573120838157000,4.473156982421875,-0.019702911376953125,-0.009075760841369629,-0.008778482675552368
1773573120848307700,4.4833076171875,-0.02418994903564453,-0.040657758712768555,-0.008221268653869629
1773573120858462000,4.4934619140625,-0.023878097534179688,-0.029651880264282227,0.011377096176147461
1773573120868613000,4.503613037109375,-0.00943756103515625,-0.018933773040771484,0.0023970603942871094
1773573120878756600,4.513756591796875,-0.01877593994140625,-0.0035824179649353027,-0.0161629319190979
1773573120888907000,4.523906982421875,0.00030040740966796875,0.006600916385650635,-0.010669946670532227
1773573120899052000,4.534052001953125,0.02848339080810547,0.002384364604949951,-0.0005601644515991211
1773573120909202000,4.544201904296875,0.023232460021972656,0.021881461143493652,0.00928497314453125
1773573120919360300,4.5543603515625,-0.0007610321044921875,0.022115707397460938,0.004944801330566406
1773573120929511200,4.56451123046875,-0.014934539794921875,0.012828290462493896,-0.003935575485229492
1773573120939654700,4.574654541015625,-0.024173736572265625,0.022737622261047363,0.0013533532619476318
1773573120949804500,4.584804443359375,-0.014432907104492188,-0.0003699064254760742,0.0018382668495178223
1773573120959977700,4.594977783203125,-0.0048389434814453125,-0.00918114185333252,0.02587449550628662
1773573120970130200,4.605130126953125,-0.014246940612792969,-0.003720998764038086,-0.011494487524032593
1773573120980257800,4.6152578125,-0.009360313415527344,-0.017291605472564697,-0.015386104583740234
1773573120990407700,4.62540771484375,0.0048770904541015625,-0.026030361652374268,-0.01000240445137024
1773573121000577300,4.635577392578125,0.0047702789306640625,0.007550060749053955,-0.02836248278617859
1773573121010729200,4.645729248046875,-0.0047321319580078125,0.0026895999908447266,-0.037096381187438965
1773573121020861200,4.655861083984375,-0.02820587158203125,0.0027149319648742676,-0.017522305250167847
1773573121031011000,4.666010986328125,-0.008899688720703125,0.0027438998222351074,-0.01742836833000183
1773573121041160400,4.676160400390625,0.000667572021484375,0.0027723312377929688,-0.0032101571559906006
1773573121051310300,4.686310302734375,-0.01816082000732422,-0.01624220609664917,-0.012771904468536377
1773573121061477400,4.696477294921875,-0.0036993026733398438,-0.006796479225158691,0.029419004917144775
1773573121071628800,4.70662890625,0.015229225158691406,-0.011637628078460693,0.0049946606159210205
1773573121081781200,4.71678125,0.010287284851074219,0.011961400508880615,0.009325385093688965
1773573121091932700,4.7269326171875,0.0007076263427734375,0.016440749168395996,0.023097604513168335
1773573121102071300,4.7370712890625,0.0148162841796875,0.0021150708198547363,0.022722631692886353
1773573121112221400,4.747221435546875,0.014547348022460938,0.030509591102600098,0.027270644903182983
1773573121122383400,4.75738330078125,-0.009278297424316406,0.0349961519241333,0.017922252416610718
1773573121132535000,4.76753515625,0.009662628173828125,0.006551623344421387,0.008729159832000732
1773573121142683100,4.77768310546875,0.028280258178710938,0.02106243371963501,-0.0003108680248260498
1773573121152834300,4.787834228515625,0.008917808532714844,0.01168447732925415,-0.008991897106170654
1773573121162990000,4.797989990234375,0.003985404968261719,-0.002037346363067627,-0.008006572723388672
1773573121173141800,4.808141845703125,-0.005573272705078125,-0.006109654903411865,-0.0023370087146759033
1773573121183289300,4.818289306640625,0.013279914855957031,0.004011392593383789,-0.010888010263442993
1773573121193440800,4.828440673828125,0.017704010009765625,-0.004974424839019775,-0.019400298595428467
1773573121203590700,4.838590576171875,0.003238677978515625,-0.009310126304626465,-0.004331797361373901
1773573121213741600,4.848741455078125,-0.001556396484375,-0.013677716255187988,0.010381519794464111
1773573121223895800,4.858895751953125,-0.02039051055908203,-0.008659303188323975,-0.008110344409942627
1773573121234047200,4.869047119140625,-0.020067214965820312,-0.013245880603790283,-0.021585613489151
1773573121244196600,4.879196533203125,-0.000904083251953125,-0.013151407241821289,-0.011397480964660645
1773573121254347800,4.88934765625,-0.005580902099609375,-0.008561849594116211,-0.015705496072769165
1773573121264463400,4.89946337890625,-0.005478858947753906,0.0008682608604431152,-0.02014985680580139
1773573121274611000,4.90961083984375,-0.010071754455566406,-0.00879758596420288,-0.015311062335968018
1773573121284799000,4.919799072265625,0.023084640502929688,0.009948313236236572,-0.02007538080215454
1773573121294950700,4.92995068359375,0.00859832763671875,0.01896536350250244,0.008305072784423828
1773573121305067000,4.94006689453125,-0.0009489059448242188,0.0373501181602478,0.017490088939666748
1773573121315215000,4.950215087890625,0.008493423461914062,0.03659743070602417,0.012492448091506958
1773573121325387800,4.9603876953125,-0.005767822265625,0.012314021587371826,-0.006443381309509277
1773573121335538400,4.970538330078125,0.008444786071777344,0.0073740482330322266,-0.006021350622177124
1773573121345687300,4.980687255859375,0.013010978698730469,0.02595531940460205,-0.005606412887573242
1773573121355837700,4.990837646484375,0.01751995086669922,0.011054813861846924,-0.010003417730331421
1773573121365991000,5.000990966796875,0.026650428771972656,-0.00809776782989502,0.009111851453781128
1773573121376141600,5.0111416015625,0.012082099914550781,0.015449941158294678,0.009170591831207275
1773573121386289700,5.02128955078125,-0.011660575866699219,0.015066087245941162,-0.0001964867115020752
1773573121396440000,5.031440185546875,-0.020885467529296875,0.014792680740356445,0.014031469821929932
1773573121406589700,5.041589599609375,0.012402534484863281,0.01001960039138794,0.0045909881591796875
1773573121416740000,5.051739990234375,0.007462501525878906,-0.004195213317871094,0.0003287196159362793
1773573121426893800,5.061893798828125,-0.006819725036621094,0.000765383243560791,0.0008462667465209961
1773573121437044500,5.07204443359375,-0.03497791290283203,-0.01800382137298584,-0.012874901294708252
1773573121447185000,5.082184814453125,0.007968902587890625,-0.008204877376556396,-0.012457519769668579
1773573121457334800,5.092334716796875,0.04548072814941406,0.0016426444053649902,0.020801573991775513
1773573121467498800,5.102498779296875,0.0258636474609375,-0.0029110312461853027,-0.02160733938217163
1773573121477650000,5.11264990234375,-0.021666526794433594,0.0020281076431274414,-0.02595338225364685
1773573121487833300,5.122833251953125,-0.03544425964355469,0.007098138332366943,-0.0024007558822631836
1773573121497987800,5.13298779296875,-0.025442123413085938,-0.011668682098388672,0.0068430304527282715
1773573121508105000,5.14310498046875,-0.0014772415161132812,-0.011396527290344238,0.011336266994476318
1773573121518255600,5.153255615234375,-0.0014657974243164062,0.0032015442848205566,-0.022010982036590576
1773573121528400600,5.163400634765625,0.01739501953125,0.007930874824523926,-0.017133593559265137
1773573121538550800,5.17355078125,0.007700920104980469,0.0029560327529907227,-0.012233525514602661
1773573121548698600,5.18369873046875,0.0028810501098632812,0.007473886013031006,0.006621807813644409
1773573121558848500,5.1938486328125,0.02639293670654297,0.021441400051116943,-0.0033044517040252686
1773573121569005800,5.204005859375,0.02596282958984375,0.0023238658905029297,-0.0036559998989105225
1773573121579156500,5.214156494140625,-0.012118339538574219,0.0021473169326782227,-0.008598357439041138
1773573121589298200,5.224298095703125,-0.02602863311767578,0.011498749256134033,-0.013465642929077148
1773573121599441000,5.23444091796875,0.016806602478027344,-0.00295257568359375,0.00047856569290161133
1773573121619740400,5.254740478515625,-0.00279998779296875,-0.002810180187225342,0.01391059160232544
1773573121629896700,5.264896728515625,0.016094207763671875,0.0019115209579467773,0.0133838951587677
1773573121640047000,5.275047119140625,0.00171661376953125,0.020580053329467773,0.008254081010818481
1773573121650197800,5.28519775390625,-0.012416839599609375,-0.00824880599975586,0.017432034015655518
1773573121660348200,5.29534814453125,0.0019216537475585938,-0.003637075424194336,0.012747615575790405
1773573121670508800,5.3055087890625,-0.021658897399902344,0.015228033065795898,0.008045017719268799
1773573121680660200,5.31566015625,-0.03071308135986328,0.014944314956665039,0.01733812689781189
1773573121690802000,5.325802001953125,-0.0019550323486328125,-0.00406879186630249,0.01235818862915039
1773573121700952300,5.335952392578125,0.002777099609375,0.005590677261352539,-0.006768643856048584
1773573121711101200,5.34610107421875,0.02156352996826172,0.0008631348609924316,-0.006749868392944336
1773573121721251300,5.356251220703125,0.011792182922363281,0.014948427677154541,-0.0067390501499176025
1773573121731401700,5.366401611328125,0.016298294067382812,0.0006515383720397949,0.012210041284561157
1773573121741552000,5.37655224609375,0.011320114135742188,-0.013511180877685547,0.002591758966445923
1773573121751716600,5.386716552734375,-0.012406349182128906,0.0007094144821166992,0.007363826036453247
1773573121761868300,5.396868408203125,-0.031017303466796875,0.014585256576538086,-0.011583268642425537
1773573121772021800,5.407021728515625,-0.016343116760253906,0.01881641149520874,-0.007095694541931152
1773573121782173400,5.41717333984375,-0.030190467834472656,-0.0002611875534057617,0.011562258005142212
1773573121792318000,5.42731787109375,0.007979393005371094,-0.00018268823623657227,0.015984147787094116
1773573121802469000,5.43746923828125,0.01726531982421875,0.009315550327301025,-0.017448216676712036
1773573121812612600,5.447612548828125,0.021688461303710938,-0.009495913982391357,-0.0081462562084198
1773573121822763000,5.457762939453125,0.021332740783691406,0.00015753507614135742,-0.0036117732524871826
1773573121832913000,5.467912841796875,0.020971298217773438,0.014358699321746826,0.0011594295501708984
1773573121843063000,5.47806298828125,0.015895843505859375,0.009592890739440918,-0.017587780952453613
1773573121853214500,5.48821435546875,-0.012640953063964844,-0.0044103264808654785,0.006258368492126465
1773573121863364900,5.49836474609375,-0.0077381134033203125,-0.008763015270233154,0.015477180480957031
1773573121873534200,5.5085341796875,-0.017027854919433594,-0.017956078052520752,0.0009915828704833984
1773573121883686700,5.518686767578125,0.0020885467529296875,-0.0034567713737487793,-0.0273706316947937
1773573121893817300,5.5288173828125,-0.007349967956542969,0.001279592514038086,-0.013090342283248901
1773573121903967500,5.538967529296875,-0.007218360900878906,0.02497953176498413,0.028890669345855713
1773573121914107400,5.549107421875,0.0023136138916015625,-0.0035102367401123047,0.01408541202545166
1773573121924256500,5.559256591796875,0.021103858947753906,-0.012790918350219727,0.013853073120117188
1773573121934419200,5.569419189453125,0.020750045776367188,-0.007791042327880859,-0.005313992500305176
1773573121944569600,5.579569580078125,-0.021978378295898438,0.006542623043060303,-0.009931594133377075
1773573121954716400,5.58971630859375,-0.007488250732421875,0.006515443325042725,0.0042504966259002686
1773573121964866600,5.599866455078125,-0.0026569366455078125,0.029923737049102783,-0.00042241811752319336
1773573121975041300,5.610041259765625,-0.0026111602783203125,0.02939504384994507,-0.00982251763343811
1773573121985194000,5.620194091796875,-0.00727081298828125,0.010148763656616211,0.004157036542892456
1773573121995317500,5.6303173828125,-0.01184844970703125,0.0005401968955993652,0.013292133808135986
1773573122005467100,5.640467041015625,-0.011652946472167969,-0.013520359992980957,0.027102291584014893
1773573122015618300,5.650618408203125,-0.0020437240600585938,0.005617380142211914,0.0030059218406677246
1773573122025768200,5.660768310546875,-0.011432647705078125,0.001101374626159668,-0.006875276565551758
1773573122035929300,5.670929443359375,-0.006527900695800781,0.0012614727020263672,0.011562734842300415
1773573122046080300,5.681080322265625,0.007704734802246094,0.02496945858001709,0.006343960762023926
1773573122056207000,5.69120703125,0.01227569580078125,0.0012997984886169434,-0.0034956634044647217
1773573122066355700,5.701355712890625,0.03089618682861328,-0.0031442642211914062,0.0009614229202270508
1773573122076537900,5.711537841796875,0.0303955078125,0.025237977504730225,0.009842902421951294
1773573122086689800,5.721689697265625,0.001659393310546875,-0.008168816566467285,0.013869255781173706
1773573122096831000,5.7318310546875,0.015763282775878906,0.0014625191688537598,0.013328522443771362
1773573122106982000,5.74198193359375,0.02019214630126953,0.0016242265701293945,-0.005629092454910278
1773573122117129700,5.752129638671875,-0.01781463623046875,0.0015711188316345215,-0.010137379169464111
1773573122127280000,5.762280029296875,-0.036346435546875,-0.012506663799285889,0.003855079412460327
1773573122137437000,5.77243701171875,-0.031006813049316406,0.006502330303192139,-0.00152510404586792
1773573122147588000,5.782588134765625,-0.011608123779296875,0.006159722805023193,-0.04470738768577576
1773573122157735400,5.7927353515625,0.012181282043457031,0.005822956562042236,-0.016644775867462158
1773573122167886300,5.80288623046875,0.012026786804199219,0.015009105205535889,0.001436084508895874
1773573122178040000,5.8130400390625,-0.030506134033203125,0.009916305541992188,-0.008932113647460938
1773573122188191200,5.823191162109375,-0.05820465087890625,-0.009009122848510742,-0.000709235668182373
1773573122198331100,5.8333310546875,0.05582904815673828,0.009945571422576904,0.021400004625320435
1773573122208481300,5.843481201171875,0.05022621154785156,0.004833221435546875,-0.003010004758834839
1773573122218627800,5.8536279296875,0.007061004638671875,-0.0001938939094543457,-0.0179080069065094
1773573122228777500,5.863777587890625,0.007012367248535156,0.013905227184295654,0.004173994064331055
1773573122238941200,5.873941162109375,0.044597625732421875,0.004226326942443848,0.0032806396484375
1773573122249092400,5.88409228515625,0.010927200317382812,0.008522272109985352,-0.006389409303665161
1773573122259233300,5.8942333984375,-0.05041313171386719,0.008142411708831787,-0.0025003552436828613
1773573122269383400,5.904383544921875,-0.08246994018554688,-0.005936801433563232,0.033234745264053345
1773573122279551700,5.9145517578125,-0.06689834594726562,-0.0009466409683227539,0.00695076584815979
1773573122289703700,5.92470361328125,-0.028043746948242188,-0.0009566545486450195,-0.04672655463218689
1773573122299835000,5.9348349609375,0.03373241424560547,-0.005670905113220215,-0.010672986507415771
1773573122309984500,5.944984619140625,0.047405242919921875,0.00852358341217041,0.015053391456604004
1773573122320136200,5.95513623046875,0.051392555236816406,0.003759622573852539,0.017624735832214355
1773573122330286000,5.9652861328125,0.04115486145019531,0.003779470920562744,0.02099362015724182
1773573122340454000,5.975453857421875,0.02637004852294922,0.008403480052947998,-0.01765581965446472
1773573122350605600,5.98560546875,-0.011707305908203125,0.003533303737640381,-0.008678346872329712
1773573122360755200,5.995755126953125,-0.025602340698242188,0.012870073318481445,0.00946277379989624
1773573122370906600,6.00590673828125,-0.011027336120605469,0.0032169222831726074,0.004070758819580078
1773573122381054500,6.016054443359375,-0.02495098114013672,0.007846236228942871,0.003589063882827759
1773573122391205600,6.02620556640625,-0.04332256317138672,0.017002880573272705,-0.011530905961990356
1773573122401358000,6.036358154296875,-0.019001007080078125,0.02140665054321289,0.01555439829826355
1773573122411509200,6.04650927734375,0.02371692657470703,0.025941014289855957,-0.004473507404327393
1773573122421662500,6.056662353515625,0.02333354949951172,0.011561155319213867,-0.023847848176956177
1773573122431814000,6.06681396484375,0.04179954528808594,0.020968198776245117,-0.010154902935028076
1773573122441957400,6.076957275390625,0.03640556335449219,0.015988528728485107,-0.00569075345993042
1773573122452108000,6.08710791015625,0.007549285888671875,0.0204007625579834,-0.029128849506378174
1773573122462265600,6.097265625,-0.044348716735839844,0.01050955057144165,-0.024237245321273804
1773573122472417000,6.1074169921875,-0.0388641357421875,0.005704283714294434,0.003379732370376587
1773573122482532600,6.11753271484375,0.013601303100585938,0.00568312406539917,0.030858933925628662
1773573122492680400,6.127680419921875,0.0369110107421875,0.005558490753173828,0.002311199903488159
1773573122502864000,6.13786376953125,0.050421714782714844,0.009935617446899414,-0.01142534613609314
1773573122513015300,6.148015380859375,0.04486083984375,0.004923224449157715,-0.0059881508350372314
1773573122523133000,6.1581328125,0.00641632080078125,0.014228582382202148,-0.009860634803771973
1773573122533281000,6.168281005859375,-0.03137969970703125,-0.004981100559234619,0.005175650119781494
1773573122543450000,6.1784501953125,-0.035564422607421875,-0.009736597537994385,0.019426077604293823
1773573122553600300,6.188600341796875,-0.011431694030761719,-0.00018274784088134766,0.0003743767738342285
1773573122563757300,6.19875732421875,0.0028772354125976562,0.004390597343444824,-0.008614778518676758
1773573122573908200,6.208908203125,-0.011302947998046875,-0.0004210472106933594,-0.008252978324890137
1773573122584052700,6.219052734375,0.012434005737304688,0.013573646545410156,0.024966388940811157
1773573122594203000,6.229202880859375,0.016918182373046875,0.013109326362609863,0.020684361457824707
1773573122604355000,6.23935498046875,0.011882781982421875,0.003443777561187744,-0.0067567527294158936
1773573122614480100,6.249480224609375,0.03047466278076172,0.012877583503723145,0.0037175416946411133
1773573122634804000,6.269803955078125,-0.0033206939697265625,0.02626323699951172,-0.013367235660552979
1773573122644957000,6.27995703125,-0.02682209014892578,0.011773943901062012,-0.003509014844894409
1773573122655105300,6.290105224609375,-0.03579139709472656,0.011443734169006348,0.020310580730438232
1773573122665257700,6.3002578125,-0.02108478546142578,0.006414651870727539,-0.0076525211334228516
1773573122675410000,6.310409912109375,0.0027751922607421875,-0.007748007774353027,-0.0020699501037597656
1773573122685562400,6.320562255859375,0.026228904724121094,0.0018725395202636719,0.013037264347076416
1773573122695718000,6.3307177734375,0.021032333374023438,0.0020155906677246094,0.013774991035461426
1773573122705870800,6.340870849609375,-0.03584480285644531,-0.0028606653213500977,-0.027988970279693604
1773573122716008400,6.351008544921875,-0.04937934875488281,-0.012251734733581543,-0.013194173574447632
1773573122726159600,6.36115966796875,0.012653350830078125,-0.011969149112701416,-0.008367449045181274
1773573122736310300,6.371310302734375,0.007727622985839844,-0.0023823976516723633,0.0014073550701141357
1773573122746461400,6.38146142578125,0.0028963088989257812,-0.002372562885284424,0.0012897849082946777
1773573122756612600,6.391612548828125,-0.0065746307373046875,-0.0021505355834960938,0.029313981533050537
1773573122766763800,6.401763671875,-0.0017719268798828125,-0.0021404027938842773,0.015118330717086792
1773573122776918000,6.41191796875,-0.00177001953125,0.011991143226623535,-0.007937759160995483
1773573122787069400,6.4220693359375,0.012351036071777344,0.0072609782218933105,-0.007275015115737915
1773573122797231900,6.43223193359375,-0.0067157745361328125,0.01202702522277832,-0.02095690369606018
1773573122807384300,6.44238427734375,-0.03486824035644531,0.0025876760482788086,-0.006471842527389526
1773573122817516800,6.452516845703125,-0.02959156036376953,-0.006694674491882324,-0.0016453862190246582
1773573122827667500,6.46266748046875,0.01797771453857422,-0.006296634674072266,-0.006636470556259155
1773573122837831700,6.472831787109375,0.050632476806640625,0.0034081339836120605,0.0073938071727752686
1773573122847983600,6.482983642578125,0.03563213348388672,-0.0012830495834350586,0.017322391271591187
1773573122858116000,6.4931162109375,0.006749153137207031,0.013150155544281006,-0.010799914598464966
1773573122868266200,6.503266357421875,0.0018901824951171875,-0.0008041858673095703,-0.010409384965896606
1773573122878421800,6.513421875,-0.007572174072265625,-0.0007165074348449707,-0.02885192632675171
1773573122888572200,6.523572265625,-0.002719879150390625,0.00397413969039917,-0.00994303822517395
1773573122898730200,6.533730224609375,0.016170501708984375,0.008582472801208496,0.018283605575561523
1773573122908881700,6.543881591796875,0.0017576217651367188,0.0038050413131713867,0.013592630624771118
1773573122919029800,6.55402978515625,0.01584339141845703,0.022546112537384033,0.013688325881958008
1773573122929181000,6.564180908203125,-0.012682914733886719,-0.0013983845710754395,0.0137748122215271
1773573122939320800,6.57432080078125,-0.026627540588378906,0.008224308490753174,0.00454634428024292
1773573122949470700,6.584470703125,0.0020380020141601562,0.012974143028259277,0.004896938800811768
1773573122959629800,6.5946298828125,0.016099929809570312,0.017644941806793213,-0.008883684873580933
1773573122969780700,6.60478076171875,0.0016679763793945312,0.008220195770263672,-0.008316904306411743
1773573122979924700,6.6149248046875,0.011027336120605469,0.0035569071769714355,-0.007759809494018555
1773573122990075000,6.625074951171875,0.010832786560058594,0.017597615718841553,-0.007315844297409058
1773573123000246500,6.63524658203125,-0.0034837722778320312,0.0032529234886169434,-0.01178818941116333
1773573123010398700,6.645398681640625,0.015395164489746094,-0.02016592025756836,0.016669869422912598
1773573123020528000,6.655528076171875,0.024526596069335938,-0.005418121814727783,0.016602128744125366
1773573123030678300,6.66567822265625,0.019367218017578125,0.01840156316757202,-0.0064941346645355225
1773573123040831000,6.6758310546875,0.009604454040527344,0.008755981922149658,-0.005966991186141968
1773573123050981400,6.6859814453125,9.5367431640625e-7,0.008688271045684814,-0.005344599485397339
1773573123061130000,6.6961298828125,-0.04240226745605469,-0.0007954835891723633,-0.01885846257209778
1773573123071280000,6.706280029296875,-0.022874832153320312,0.008713185787200928,-0.01833358407020569
1773573123081450500,6.716450439453125,0.010448455810546875,-0.005379140377044678,-0.008496522903442383
1773573123091602700,6.726602783203125,-0.008593559265136719,-0.009819746017456055,0.0015929043292999268
1773573123101726200,6.736726318359375,-0.017905235290527344,0.004755377769470215,-0.002724558115005493
1773573123111875300,6.746875244140625,-0.012928009033203125,0.004854440689086914,0.0024558305740356445
1773573123122042400,6.75704248046875,-0.008029937744140625,-0.013990581035614014,0.021788328886032104
1773573123132193300,6.767193359375,0.029746055603027344,0.00515514612197876,0.026656657457351685
1773573123142335700,6.777335693359375,0.015082359313964844,0.00044280290603637695,0.013017505407333374
1773573123152486000,6.78748583984375,-0.004048347473144531,0.014851689338684082,-0.024248838424682617
1773573123162637800,6.797637939453125,0.0006990432739257812,0.0007648468017578125,-0.009508311748504639
1773573123172788000,6.8077880859375,-0.022884368896484375,0.0009303689002990723,-0.008923381567001343
1773573123182939400,6.817939453125,-0.022521018981933594,0.005805790424346924,-0.003959596157073975
1773573123193089800,6.82808984375,0.020229339599609375,0.0058953166007995605,0.00520595908164978
1773573123203226600,6.8382265625,0.01987934112548828,0.020100891590118408,0.02396354079246521
1773573123213375700,6.848375732421875,-0.008725166320800781,-0.003702878952026367,0.005156189203262329
1773573123223543600,6.85854345703125,-0.008601188659667969,0.010663270950317383,0.005288869142532349
1773573123233694500,6.868694580078125,0.015059471130371094,0.0011425614356994629,0.010439902544021606
1773573123243841000,6.878841064453125,-0.02758312225341797,0.005698204040527344,-0.007934033870697021
1773573123253991400,6.888991455078125,-0.03184986114501953,0.0009688138961791992,-0.012188047170639038
1773573123264142800,6.899142822265625,-0.02660846710205078,-0.01791161298751831,-0.002557694911956787
1773573123274293500,6.90929345703125,-0.00731658935546875,0.0011913776397705078,-0.0028173327445983887
1773573123284444400,6.9194443359375,0.006941795349121094,0.0012497305870056152,-0.012601584196090698
1773573123294595000,6.929594970703125,0.03507232666015625,-0.003301382064819336,-0.003172546625137329
1773573123304775000,6.93977490234375,0.010950088500976562,-0.0032722949981689453,0.006195515394210815
1773573123314928400,6.949928466796875,-0.003337860107421875,0.010669827461242676,0.005998164415359497
1773573123325050000,6.960050048828125,-0.00327301025390625,-0.0037714242935180664,0.001207202672958374
1773573123335200500,6.970200439453125,0.0062084197998046875,-0.027285456657409668,0.01041373610496521
1773573123345344800,6.9803447265625,0.02494525909423828,-0.01273876428604126,0.0054451823234558105
1773573123355494700,6.99049462890625,0.019814491271972656,0.006278038024902344,-0.008553147315979004
1773573123365666300,7.000666259765625,0.028875350952148438,0.010747730731964111,-0.0027529895305633545
1773573123375818200,7.010818359375,-0.018721580505371094,0.00112152099609375,-0.02069839835166931
1773573123385954000,7.0209541015625,-0.03724956512451172,0.010486185550689697,0.0034150779247283936
1773573123396104400,7.0311044921875,-0.017808914184570312,0.0008603334426879883,0.017918020486831665
1773573123406238500,7.041238525390625,0.010721206665039062,-0.0037845969200134277,-0.0009008347988128662
1773573123416387300,7.05138720703125,0.029371261596679688,0.0058779120445251465,0.008325546979904175
1773573123426552000,7.061552001953125,0.010042190551757812,0.006062805652618408,0.017196983098983765
1773573123436702500,7.071702392578125,-0.004267692565917969,0.010952770709991455,0.0026904940605163574
1773573123446867700,7.08186767578125,-0.03716278076171875,-0.0031690597534179688,0.007140427827835083
1773573123457019600,7.09201953125,0.019957542419433594,0.006379127502441406,0.03517121076583862
1773573123467155500,7.102155517578125,0.019603729248046875,0.011055469512939453,0.002050727605819702
1773573123477305600,7.1123056640625,-0.013711929321289062,0.006445050239562988,-0.007182389497756958
1773573123487466200,7.12246630859375,0.010038375854492188,0.01604151725769043,0.016482621431350708
1773573123497617400,7.132617431640625,-0.004284858703613281,0.015856266021728516,-0.002007007598876953
1773573123507776500,7.142776611328125,-0.041907310485839844,0.006357252597808838,-0.020492970943450928
1773573123517928700,7.1529287109375,-0.03648948669433594,0.011142194271087646,0.016894996166229248
1773573123528057300,7.163057373046875,0.006474494934082031,0.02054762840270996,0.021547377109527588
1773573123538207200,7.173207275390625,-0.007784843444824219,0.001448988914489746,-0.02066624164581299
1773573123548357000,7.183357177734375,-0.007660865783691406,-0.003209531307220459,0.0032311677932739258
1773573123558507000,7.193507080078125,-0.04049873352050781,0.0016306638717651367,0.003179699182510376
1773573123568682800,7.203682861328125,-0.06807708740234375,0.001677870750427246,-0.011093378067016602
1773573123578835200,7.213835205078125,-0.02454376220703125,0.001728057861328125,-0.002217620611190796
1773573123588977000,7.223976806640625,0.060637474060058594,-0.007643759250640869,0.0019140243530273438
1773573123599128300,7.23412841796875,0.03608989715576172,-0.00294572114944458,-0.016830503940582275
1773573123609282000,7.244281982421875,-0.011579513549804688,-0.0030306577682495117,-0.01674821972846985
1773573123619433700,7.254433837890625,-0.011377334594726562,0.0016985535621643066,0.01629289984703064
1773573123629582300,7.264582275390625,-0.015909194946289062,0.001848459243774414,0.001905590295791626
1773573123639733500,7.2747333984375,0.012594223022460938,0.01612567901611328,-0.03108397126197815
1773573123649880800,7.284880859375,0.03589820861816406,0.006826043128967285,0.0071128904819488525
1773573123660031700,7.29503173828125,0.025850296020507812,-0.002318441867828369,-0.007017314434051514
1773573123670180400,7.305180419921875,0.0112762451171875,0.007315695285797119,-0.0020776689052581787
1773573123680331000,7.3153310546875,0.0016498565673828125,0.021397650241851807,0.003084331750869751
1773573123690482000,7.32548193359375,-0.021953582763671875,0.007097482681274414,-0.019987136125564575
1773573123700632600,7.335632568359375,-0.026305198669433594,-0.002151668071746826,0.01299622654914856
1773573123710790400,7.345790283203125,-0.0023183822631835938,0.007375657558441162,0.003059983253479004
1773573123720941800,7.35594189453125,-0.016427040100097656,-0.0019822120666503906,-0.02032342553138733
1773573123731085600,7.36608544921875,0.007380485534667969,-0.0016590356826782227,0.022075295448303223
1773573123741236200,7.376236328125,0.016676902770996094,-0.00155717134475708,0.026217788457870483
1773573123751391500,7.3863916015625,-0.0118865966796875,0.012772917747497559,-0.016065776348114014
1773573123761542700,7.396542724609375,-0.007012367248535156,0.008137762546539307,-0.015483349561691284
1773573123771694300,7.4066943359375,0.03546905517578125,-0.005841255187988281,0.012828052043914795
1773573123781845500,7.416845458984375,0.03485298156738281,0.013272702693939209,0.012928962707519531
1773573123791974100,7.42697412109375,0.015408515930175781,0.013129472732543945,-0.010203838348388672
1773573123802123000,7.437123046875,0.0010080337524414062,-0.010453999042510986,0.00420612096786499
1773573123812281900,7.44728173828125,-0.017852783203125,0.008737027645111084,0.018159985542297363
1773573123822431700,7.457431640625,-0.03168678283691406,0.008661627769470215,0.017874956130981445
1773573123832583200,7.467583251953125,-0.017038345336914062,0.00859147310256958,0.012878477573394775
1773573123842733300,7.4777333984375,-0.016776084899902344,0.027464866638183594,-0.005959928035736084
1773573123852874800,7.487874755859375,-0.011797904968261719,0.00814288854598999,-0.0008299946784973145
1773573123863024000,7.498024169921875,-0.011610984802246094,-0.006040453910827637,-0.0007097125053405762
1773573123873186600,7.5081865234375,-0.0020055770874023438,-0.005869507789611816,-0.019514620304107666
1773573123883337000,7.5183369140625,0.01687145233154297,0.003619551658630371,-0.014686554670333862
1773573123893464600,7.528464599609375,0.026021957397460938,-0.00587993860244751,0.00878441333770752
1773573123903612700,7.53861279296875,0.0020360946655273438,-0.010316252708435059,0.003842979669570923
1773573123913780200,7.5487802734375,-0.007416725158691406,0.01346898078918457,0.01781812310218811
1773573123923930400,7.558930419921875,-0.02141571044921875,-0.0007069706916809082,-0.0017119348049163818
1773573123934078200,7.569078125,0.0071868896484375,-0.005225539207458496,0.002827078104019165
1773573123944228000,7.57922802734375,0.016469955444335938,0.013669967651367188,0.007907301187515259
1773573123954385400,7.589385498046875,-0.021491050720214844,0.013516366481781006,-0.04369652271270752
1773573123964536000,7.5995361328125,0.0023965835571289062,0.013569474220275879,-0.010198622941970825
1773573123974675000,7.609675048828125,0.0305938720703125,-0.005520880222320557,0.013940215110778809
1773573123984824300,7.61982421875,0.0018148422241210938,-0.010271430015563965,-0.023222267627716064
1773573123994985700,7.62998583984375,-0.026473045349121094,0.013621211051940918,0.024052321910858154
1773573124005136400,7.640136474609375,-0.03073406219482422,0.008863866329193115,0.018432408571243286
1773573124015298000,7.650298095703125,0.0074558258056640625,0.003977656364440918,0.01321825385093689
1773573124025449700,7.66044970703125,0.012038230895996094,0.003985583782196045,0.008195281028747559
1773573124035592200,7.67059228515625,0.025938987731933594,-0.014529049396514893,0.0032561123371124268
1773573124045743000,7.6807431640625,-0.016872406005859375,-0.00008690357208251953,-0.015726596117019653
1773573124055889000,7.690888916015625,-0.049526214599609375,0.013906419277191162,-0.006453454494476318
1773573124066039000,7.7010390625,0.036040306091308594,-0.004977524280548096,0.0030736923217773438
1773573124076204500,7.71120458984375,0.06365394592285156,0.009413719177246094,-0.005766838788986206
1773573124086356500,7.7213564453125,0.006072044372558594,-0.00019025802612304688,-0.005140125751495361
1773573124096490200,7.731490234375,-0.027007102966308594,0.004599511623382568,0.028219878673553467
1773573124106640400,7.741640380859375,-0.031291961669921875,0.013914048671722412,-0.009188145399093628
1773573124116792300,7.751792236328125,-0.035480499267578125,0.008943676948547363,-0.03717243671417236
1773573124126942700,7.761942626953125,0.01691150665283203,0.02320277690887451,-0.0090198814868927
1773573124137098200,7.77209814453125,0.030750274658203125,0.01839393377304077,0.014259248971939087
1773573124147249200,7.782249267578125,0.03494834899902344,0.013348877429962158,-0.00480276346206665
1773573124157397000,7.79239697265625,0.024957656860351562,-0.0011333823204040527,-0.009421288967132568
1773573124167547600,7.802547607421875,0.015114784240722656,0.013089418411254883,-0.009157776832580566
1773573124177713400,7.81271337890625,-0.036937713623046875,0.012949526309967041,-0.004294157028198242
1773573124187865300,7.822865234375,-0.026906967163085938,0.012707710266113281,0.0005924999713897705
1773573124198004700,7.833004638671875,0.020618438720703125,0.007861495018005371,0.0006966292858123779
1773573124208155600,7.84315576171875,0.03438282012939453,-0.0015084147453308105,0.005507737398147583
1773573124218298400,7.85329833984375,0.02437114715576172,-0.01072227954864502,0.0009254217147827148
1773573124228448300,7.8634482421875,0.0004119873046875,-0.001152336597442627,0.0012246966361999512
1773573124238616300,7.8736162109375,-0.013738632202148438,0.008362293243408203,-0.0031890273094177246
1773573124248768000,7.88376806640625,-0.013515472412109375,-0.010645270347595215,0.0017985999584197998
1773573124258898400,7.8938984375,-0.03212261199951172,0.02246248722076416,-0.00763857364654541
1773573124269048000,7.904048095703125,0.024921417236328125,0.03157949447631836,0.011020839214324951
1773573124279216400,7.91421630859375,0.06216907501220703,-0.0018287301063537598,0.020256757736206055
1773573124289368000,7.9243681640625,-0.00010395050048828125,-0.006328463554382324,-0.03155297040939331
1773573124299501600,7.93450146484375,-0.00011157989501953125,0.008080840110778809,-0.016995221376419067
1773573124309651500,7.9446513671875,-0.009539604187011719,0.01753777265548706,0.002140045166015625
1773573124319807700,7.954807861328125,0.014148712158203125,-0.0015106797218322754,0.0023151040077209473
1773573124329958100,7.964958251953125,0.028017044067382812,0.0034053921699523926,0.0024871528148651123
1773573124340105000,7.97510498046875,-0.0007266998291015625,0.008239448070526123,0.021594732999801636
1773573124350254800,7.9852548828125,-0.014845848083496094,-0.0012369155883789062,0.011820018291473389
1773573124360405500,7.995405517578125,-0.02402496337890625,-0.005850672721862793,0.011737167835235596
1773573124370555600,8.0055556640625,-0.009524345397949219,0.02268451452255249,-0.0022771358489990234
1773573124380718000,8.015718017578125,-0.004670143127441406,0.008471250534057617,-0.0024528801441192627
1773573124390869500,8.025869384765626,0.004811286926269531,0.013321101665496826,0.016224145889282227
1773573124401008400,8.03600830078125,-0.00000667572021484375,0.008668720722198486,-0.0026549994945526123
1773573124411158500,8.046158447265626,-0.014138221740722656,0.0038898587226867676,-0.002600729465484619
1773573124421308400,8.056308349609376,0.01905536651611328,0.003899216651916504,0.011474281549453735
1773573124431458600,8.06645849609375,0.02343273162841797,0.0039084553718566895,0.002084106206893921
1773573124441617200,8.0766171875,-0.009939193725585938,0.004021763801574707,0.006976395845413208
1773573124451768000,8.08676806640625,-0.03804206848144531,0.008945822715759277,0.0020574331283569336
1773573124461910500,8.09691064453125,-0.009165763854980469,0.018392086029052734,0.011346310377120972
1773573124472060700,8.107060791015625,0.014528274536132812,-0.0006746053695678711,0.011063098907470703
1773573124482199300,8.11719921875,-0.004553794860839844,-0.005193829536437988,0.0012635588645935059
1773573124492348200,8.12734814453125,-0.02330303192138672,0.00428396463394165,0.015162497758865356
1773573124502529500,8.137529541015626,-0.013506889343261719,0.023121356964111328,0.010315656661987305
1773573124512681700,8.147681640625,0.010243415832519531,0.01349717378616333,-0.00857648253440857
1773573124522820600,8.157820556640624,0.019469261169433594,-0.0005675554275512695,0.00569462776184082
1773573124532971500,8.167971435546875,0.00499725341796875,0.013749957084655762,-0.008315414190292358
1773573124543115300,8.178115234375,-0.004528999328613281,-0.009843945503234863,0.0015625059604644775
1773573124553265400,8.188265380859375,-0.028013229370117188,0.0046242475509643555,0.006359189748764038
1773573124563420200,8.198420166015625,-0.0181427001953125,0.014142751693725586,-0.017279744148254395
1773573124573570800,8.20857080078125,0.010397911071777344,-0.000040471553802490234,-0.007564544677734375
1773573124583724800,8.218724853515624,0.000782012939453125,-0.023304224014282227,-0.0214424729347229
1773573124593875700,8.228875732421875,-0.018067359924316406,0.010122537612915039,0.0023561716079711914
1773573124604023000,8.23902294921875,0.0010662078857421875,0.014740526676177979,0.025758206844329834
1773573124614173400,8.24917333984375,0.005759239196777344,0.0002390146255493164,-0.002712041139602661
1773573124624324400,8.259324462890625,0.015078544616699219,-0.0045073628425598145,0.011580675840377808
1773573124634475000,8.26947509765625,0.014825820922851562,-0.004358053207397461,0.02541935443878174
1773573124644627000,8.279626953125,-0.013674736022949219,-0.009023904800415039,-0.0031417012214660645
1773573124654777600,8.289777587890624,-0.008728981018066406,0.005122184753417969,-0.007795542478561401
1773573124664921600,8.299921630859375,0.010249137878417969,0.014532089233398438,0.006358534097671509
1773573124675071700,8.31007177734375,-0.02289867401123047,-0.004366159439086914,0.015783846378326416
1773573124685234700,8.320234619140624,-0.022522926330566406,0.005198121070861816,0.0014050304889678955
1773573124695386000,8.33038623046875,-0.0174407958984375,0.014602899551391602,0.01070469617843628
1773573124705537800,8.340537841796875,0.011092185974121094,0.014437675476074219,0.0012156367301940918
1773573124715689200,8.350689208984376,0.029725074768066406,0.014379322528839111,0.006010502576828003
1773573124725828000,8.360828125,0.019806861877441406,0.028343498706817627,0.0012041330337524414
1773573124735978200,8.370978271484375,-0.018198013305664062,-0.00030231475830078125,0.001186460256576538
1773573124746128400,8.38112841796875,-0.027314186096191406,-0.00021916627883911133,-0.008352190256118774
1773573124756278500,8.391278564453126,0.015516281127929688,-0.0001373887062072754,-0.008314669132232666
1773573124766441500,8.40144140625,0.019964218139648438,-0.004769384860992432,-0.017687469720840454
1773573124776593000,8.411593017578125,0.010219573974609375,0.018931210041046143,-0.017702609300613403
1773573124786724000,8.42172412109375,0.0053462982177734375,0.009168684482574463,-0.008084267377853394
1773573124796873500,8.43187353515625,0.009975433349609375,0.008881866931915283,-0.007939517498016357
1773573124807044900,8.442044921875,0.0051059722900390625,0.0180167555809021,0.0017243623733520508
1773573124817196500,8.452196533203125,0.0003070831298828125,-0.005756199359893799,-0.007703930139541626
1773573124827349500,8.462349609375,0.00029659271240234375,0.003831207752227783,0.006560266017913818
1773573124837501200,8.472501220703125,0.004985809326171875,0.027384519577026367,0.011377781629562378
1773573124847619800,8.482619873046875,0.0048885345458984375,0.022193610668182373,0.006897062063217163
1773573124857768200,8.492768310546875,-0.004628181457519531,-0.01095813512802124,0.006896227598190308
1773573124867948000,8.502947998046874,-0.004569053649902344,-0.024722516536712646,0.0068957507610321045
1773573124878099700,8.513099609375,0.014312744140625,-0.0005890727043151855,0.016624510288238525
1773573124888212500,8.52321240234375,0.023462295532226562,0.023145198822021484,0.007347553968429565
1773573124898360000,8.533360107421874,-0.0005044937133789062,0.013416469097137451,-0.006162017583847046
1773573124908553200,8.54355322265625,-0.028777122497558594,0.003846287727355957,-0.010122835636138916
1773573124918705400,8.553705322265625,-0.02832317352294922,0.013381600379943848,-0.01434791088104248
1773573124928856000,8.56385595703125,-0.01845550537109375,-0.014910757541656494,-0.01860678195953369
1773573124939008000,8.574008056640626,-0.027578353881835938,-0.004962563514709473,-0.009077668190002441
1773573124949152300,8.58415234375,0.015256881713867188,0.0047155022621154785,0.01902306079864502
1773573124959303400,8.594303466796875,0.024397850036621094,0.004819154739379883,-0.0046263039112091064
1773573124969456400,8.604456298828126,-0.008981704711914062,-0.0092085599899292,-0.009247779846191406
1773573124979607800,8.61460791015625,-0.008818626403808594,0.00033605098724365234,-0.009403616189956665
1773573124989760000,8.624760009765625,-0.02279949188232422,-0.009116649627685547,-0.013841331005096436
1773573124999911700,8.63491162109375,-0.013004302978515625,0.009839773178100586,-0.004079312086105347
1773573125010056000,8.645055908203124,0.0060558319091796875,0.00033658742904663086,0.004992097616195679
1773573125020206600,8.65520654296875,-0.017571449279785156,0.00019305944442749023,0.000009685754776000977
1773573125030331600,8.66533154296875,0.0015611648559570312,0.018890559673309326,0.004831939935684204
1773573125040480000,8.67547998046875,0.02978515625,0.032775700092315674,0.00936591625213623
1773573125050646300,8.685646240234375,0.03868865966796875,-0.0052607059478759766,0.02344992756843567
1773573125060796400,8.69579638671875,-0.00907135009765625,0.009134888648986816,0.01876935362815857
1773573125070951400,8.705951416015624,-0.027771949768066406,0.023182690143585205,0.004653275012969971
1773573125081102000,8.71610205078125,0.005625724792480469,0.018262088298797607,-0.01392868161201477
1773573125091249400,8.72624951171875,0.0008106231689453125,-0.000698387622833252,0.014565050601959229
1773573125101399600,8.736399658203124,-0.013310432434082031,0.003991961479187012,0.009207308292388916
1773573125111567400,8.7465673828125,-0.008385658264160156,0.022942304611206055,0.01355627179145813
1773573125121719300,8.75671923828125,0.01056671142578125,0.00862032175064087,0.027659118175506592
1773573125131854800,8.766854736328124,-0.00846099853515625,0.013367176055908203,0.027304470539093018
1773573125142005200,8.777005126953124,0.0057964324951171875,0.00390547513961792,0.007920950651168823
1773573125152164400,8.787164306640625,0.0056781768798828125,0.01343601942062378,-0.006118416786193848
1773573125162315500,8.7973154296875,0.010273933410644531,0.0038691163063049316,-0.005694091320037842
1773573125172454700,8.80745458984375,-0.01815032958984375,0.0038826465606689453,0.008424997329711914
1773573125182604500,8.8176044921875,-0.022554397583007812,0.003895998001098633,0.0033701658248901367
1773573125192754400,8.82775439453125,-0.0316009521484375,0.013430416584014893,0.007816791534423828
1773573125202904600,8.837904541015625,0.006596565246582031,0.01799321174621582,-0.011353641748428345
1773573125213076200,8.848076171875,0.015901565551757812,0.0036458373069763184,0.002859443426132202
1773573125223228400,8.858228515625,-0.012620925903320312,0.017785072326660156,-0.02072116732597351
1773573125233366000,8.868365966796874,-0.021833419799804688,0.012958109378814697,0.0029692351818084717
1773573125243516700,8.8785166015625,0.020890235900878906,-0.020039796829223633,0.007742464542388916
1773573125253662500,8.888662353515626,0.03934764862060547,-0.01021432876586914,0.008247733116149902
1773573125263812900,8.898812744140624,0.015127182006835938,0.004155874252319336,-0.010297685861587524
1773573125273964300,8.90896435546875,0.000743865966796875,0.004056692123413086,-0.0004906058311462402
1773573125284114700,8.91911474609375,-0.02752208709716797,0.008563697338104248,0.0139656662940979
1773573125294261500,8.929261474609374,-0.0270538330078125,0.0035784244537353516,0.004325747489929199
1773573125304411400,8.939411376953124,0.0016546249389648438,-0.010532796382904053,0.003951400518417358
1773573125314564900,8.94956494140625,0.0016326904296875,-0.005574464797973633,-0.005834013223648071
1773573125324715300,8.95971533203125,-0.007802009582519531,-0.01011592149734497,-0.006143152713775635
1773573125334867000,8.969866943359374,0.011171340942382812,-0.005160689353942871,0.026505351066589355
1773573125345017300,8.980017333984375,0.039238929748535156,0.013829946517944336,0.007038682699203491
1773573125355176400,8.990176513671875,-0.0038137435913085938,0.01377791166305542,-0.006985992193222046
1773573125365327600,9.00032763671875,-0.0037517547607421875,0.0042092204093933105,0.007154494524002075
1773573125375480600,9.01048046875,0.0198211669921875,0.004425525665283203,0.026184409856796265
1773573125385632300,9.02063232421875,0.0053195953369140625,0.009238719940185547,-0.0016605854034423828
1773573125395770600,9.0307705078125,0.0005044937133789062,-0.00025832653045654297,-0.0013109147548675537
1773573125405920800,9.040920654296874,0.019321441650390625,0.00452876091003418,-0.0011749565601348877
1773573125416078800,9.051078857421874,0.004848480224609375,0.023365795612335205,-0.024174988269805908
1773573125426229800,9.061229736328125,-0.01878833770751953,0.02786719799041748,-0.028478264808654785
1773573125436374500,9.07137451171875,0.00034999847412109375,0.018267810344696045,0.009362995624542236
1773573125446525000,9.08152490234375,0.00033092498779296875,-0.005401253700256348,-0.0002002120018005371
1773573125456669400,9.09166943359375,-0.009097099304199219,-0.0052370429039001465,-0.0001868605613708496
1773573125466819000,9.101819091796875,-0.008955001831054688,0.004441797733306885,-0.004978775978088379
1773573125476971000,9.111970947265625,-0.0041065216064453125,0.013963282108306885,0.004427284002304077
1773573125487121200,9.12212109375,0.010077476501464844,-0.00042122602462768555,0.014085382223129272
1773573125497275100,9.132275146484375,-0.00423431396484375,0.00897306203842163,-0.009161591529846191
1773573125507425500,9.142425537109375,0.0005273818969726562,0.022919416427612305,0.0009388625621795654
1773573125517594400,9.152594482421875,-0.004199028015136719,-0.010452687740325928,0.0012461543083190918
1773573125527746600,9.16274658203125,-0.02296924591064453,-0.01501697301864624,-0.0032649338245391846
1773573125537872600,9.17287255859375,-0.027297019958496094,-0.02410989999771118,-0.008012980222702026
1773573125548022000,9.18302197265625,0.006134986877441406,-0.005007624626159668,0.00604817271232605
1773573125558175500,9.193175537109376,-0.008075714111328125,-0.0003534555435180664,0.005756765604019165
1773573125568325400,9.203325439453126,-0.012636184692382812,0.009139955043792725,0.0051580071449279785
1773573125578474200,9.21347412109375,-0.0030069351196289062,0.004461169242858887,0.014075279235839844
1773573125588624100,9.2236240234375,-0.007671356201171875,0.009173452854156494,-0.009699851274490356
1773573125598780000,9.23377978515625,0.011281967163085938,-0.0002143383026123047,-0.009639948606491089
1773573125608930300,9.243930419921876,0.020508766174316406,0.01399308443069458,-0.023706793785095215
1773573125619088400,9.25408837890625,0.0013380050659179688,0.009021401405334473,-0.03753161430358887
1773573125629239600,9.264239501953124,-0.003398895263671875,-0.00988912582397461,-0.018061697483062744
1773573125639394000,9.27439404296875,0.020206451416015625,-0.014462769031524658,0.005688190460205078
1773573125649545500,9.28454541015625,-0.0036602020263671875,0.004586637020111084,0.009992033243179321
1773573125659681000,9.294680908203125,-0.012999534606933594,0.01390141248703003,-0.014130890369415283
1773573125669831000,9.304830810546875,0.0013523101806640625,0.027765631675720215,-0.009384959936141968
1773573125679990800,9.31499072265625,0.04369354248046875,-0.0008705258369445801,-0.009017735719680786
1773573125690142000,9.325141845703126,0.02410602569580078,0.004030942916870117,0.010289281606674194
1773573125700284700,9.33528466796875,0.004848480224609375,0.013562977313995361,0.005619674921035767
1773573125710434800,9.345434814453125,-0.028224945068359375,-0.014628291130065918,-0.003576427698135376
1773573125720595200,9.35559521484375,-0.023062705993652344,0.00933694839477539,-0.012819766998291016
1773573125730746000,9.36574609375,-0.02738475799560547,0.004546940326690674,0.006030082702636719
1773573125740890600,9.375890625,0.006030082702636719,0.004549145698547363,0.0011193454265594482
1773573125751041300,9.386041259765625,0.029458999633789062,0.004547536373138428,0.01073610782623291
1773573125761188600,9.396188720703124,0.02424144744873047,-0.004871249198913574,0.01558801531791687
1773573125771338800,9.4063388671875,-0.009151458740234375,0.00009685754776000977,-0.007788300514221191
1773573125781488000,9.416488037109374,-0.004319190979003906,0.009694576263427734,-0.002531111240386963
1773573125791638300,9.42663818359375,0.0051479339599609375,0.00029796361923217773,0.0024302899837493896
1773573125801791500,9.43679150390625,0.014470100402832031,0.014496922492980957,-0.02104663848876953
1773573125811941600,9.446941650390626,0.004813194274902344,0.009624719619750977,-0.011484473943710327
1773573125822105000,9.45710498046875,-0.03764629364013672,0.0049343109130859375,-0.011595755815505981
1773573125832256800,9.4672568359375,-0.02761077880859375,-0.004386782646179199,-0.025622397661209106
1773573125842395600,9.477395751953125,0.0010986328125,0.014594852924346924,-0.006454944610595703
1773573125852546000,9.487546142578125,0.0010709762573242188,0.00040024518966674805,0.01710912585258484
1773573125862695200,9.497695068359375,0.033995628356933594,-0.013657987117767334,0.017146289348602295
1773573125872845300,9.50784521484375,0.00045490264892578125,0.0006694197654724121,-0.02509799599647522
1773573125883008300,9.51800830078125,-0.02781391143798828,-0.008785068988800049,-0.0008215904235839844
1773573125893159700,9.52815966796875,-0.027337074279785156,0.0006445646286010742,-0.0056105852127075195
1773573125903306500,9.538306396484375,-0.012735366821289062,0.01933807134628296,-0.010535448789596558
1773573125913457700,9.548457763671875,-0.02193450927734375,-0.004445314407348633,-0.01067739725112915
1773573125923611600,9.558611572265624,-0.007430076599121094,-0.009005546569824219,0.00782427191734314
1773573125933763000,9.56876318359375,-0.012005805969238281,0.010053098201751709,0.007287472486495972
1773573125943901000,9.57890087890625,0.016448020935058594,0.019380629062652588,-0.007165282964706421
1773573125954051000,9.589051025390624,0.0020608901977539062,-0.0092238187789917,0.0020690560340881348
1773573125964207000,9.59920703125,-0.0026760101318359375,-0.009096086025238037,-0.012192964553833008
1773573125974357800,9.609357666015624,0.011488914489746094,-0.004161715507507324,-0.026105523109436035
1773573125984512800,9.6195126953125,-0.007538795471191406,0.005399107933044434,-0.006930172443389893
1773573125994663700,9.62966357421875,0.011434555053710938,-0.008950650691986084,-0.0022001564502716064
1773573126004801800,9.6398017578125,-0.002880096435546875,0.0005819797515869141,0.011979877948760986
1773573126014951400,9.649951416015625,-0.012247085571289062,0.014668166637420654,0.007081657648086548
1773573126025124900,9.660124755859375,0.016199111938476562,0.005080878734588623,-0.007047772407531738
1773573126035277000,9.670277099609375,0.01590728759765625,0.019300341606140137,-0.002003490924835205
1773573126045420800,9.6804208984375,0.001499176025390625,0.023865461349487305,0.007561147212982178
1773573126055572200,9.690572265625,0.00146484375,0.004599571228027344,0.012473702430725098
1773573126065720000,9.700719970703124,-0.01270294189453125,0.01401430368423462,-0.001537710428237915
1773573126075871200,9.710871337890625,-0.007788658142089844,0.01846325397491455,-0.01071864366531372
1773573126086017300,9.721017333984374,-0.01707744598388672,0.02283424139022827,0.008408427238464355
1773573126096167700,9.731167724609374,0.011442184448242188,0.02263575792312622,-0.001042395830154419
1773573126106322700,9.74132275390625,0.006525993347167969,0.02254098653793335,-0.001119166612625122
1773573126116473600,9.7514736328125,0.006419181823730469,-0.0011955499649047852,0.0031940340995788574
1773573126126624300,9.761624267578124,0.011014938354492188,-0.005802333354949951,0.012552738189697266
1773573126136775200,9.771775146484375,-0.008012771606445312,0.013098835945129395,-0.0014599263668060303
1773573126146926300,9.78192626953125,0.0015287399291992188,0.008246123790740967,-0.0013214647769927979
1773573126157077200,9.7920771484375,-0.012632369995117188,-0.005939066410064697,0.00822421908378601
1773573126167227600,9.8022275390625,-0.0077266693115234375,0.008363723754882812,0.003589153289794922
1773573126177378600,9.812378662109374,-0.012311935424804688,0.013003230094909668,0.003546983003616333
1773573126187527400,9.82252734375,-0.007407188415527344,0.012852966785430908,-0.00109139084815979
1773573126197678000,9.832677978515624,0.006829261779785156,-0.0014166831970214844,0.0038612186908721924
1773573126207829200,9.842829345703125,0.0208282470703125,0.0127028226852417,0.008931875228881836
1773573126217980000,9.85297998046875,0.015755653381347656,-0.006265223026275635,0.013806283473968506
1773573126228128300,9.863128173828125,-0.008067131042480469,-0.006086587905883789,0.009189844131469727
1773573126238278700,9.873278564453125,-0.00794219970703125,-0.010723650455474854,-0.009475350379943848
1773573126248430800,9.883430908203126,-0.012505531311035156,0.0034506916999816895,-0.02354496717453003
1773573126258581500,9.89358154296875,-0.007586479187011719,-0.005949795246124268,-0.013933539390563965
1773573126268720400,9.903720458984376,0.020782470703125,0.008457064628601074,-0.009094268083572388
1773573126278869800,9.913869873046876,0.058098793029785156,-0.0010230541229248047,-0.004231691360473633
1773573126289006800,9.9240068359375,0.04771900177001953,0.003564894199371338,-0.018165379762649536
1773573126299155000,9.934155029296875,0.004551887512207031,0.003367602825164795,-0.022449493408203125
1773573126309331000,9.9443310546875,-0.014345169067382812,0.0029721856117248535,0.0064917802810668945
1773573126319481900,9.95448193359375,-0.037654876708984375,0.01210552453994751,0.007010698318481445
1773573126329619000,9.964618896484374,-0.041756629943847656,0.02139127254486084,0.0026187896728515625
1773573126339768300,9.974768310546875,-0.01752758026123047,0.025921642780303955,0.016606837511062622
1773573126349924400,9.98492431640625,0.0063018798828125,0.006729483604431152,0.01634007692337036
1773573126360074800,9.99507470703125,0.0014715194702148438,0.0020870566368103027,-0.01677832007408142
1773573126370226400,10.005226318359375,0.0014410018920898438,0.01143956184387207,-0.006863236427307129
1773573126380376800,10.015376953125,0.00140380859375,0.01603168249130249,0.002886533737182617
1773573126390531800,10.02553173828125,-0.003345489501953125,-0.0028914809226989746,0.007661193609237671
1773573126400682800,10.035682861328125,0.015519142150878906,0.020877957344055176,0.021981626749038696
1773573126410825200,10.0458251953125,0.034069061279296875,0.011294722557067871,0.007803916931152344
1773573126420975000,10.05597509765625,-0.008900642395019531,0.006475865840911865,0.0034881532192230225
1773573126431127800,10.0661279296875,-0.013474464416503906,0.006338059902191162,0.003856569528579712
1773573126441278200,10.0762783203125,-0.013262748718261719,0.01562345027923584,-0.0004974901676177979
1773573126451433500,10.08643359375,-0.02246856689453125,0.010732471942901611,-0.009799927473068237
1773573126461584400,10.09658447265625,-0.012679100036621094,-0.0036020874977111816,0.01402050256729126
1773573126471731000,10.10673095703125,0.020498275756835938,0.015158414840698242,-0.009642064571380615
1773573126481881300,10.11688134765625,0.0060443878173828125,0.005458712577819824,-0.005075037479400635
1773573126492041500,10.12704150390625,-0.04113292694091797,0.0006330013275146484,-0.014613717794418335
1773573126502193000,10.13719287109375,-0.059276580810546875,0.0005925297737121582,-0.014464229345321655
1773573126512339200,10.147339111328124,0.02176666259765625,0.0006567835807800293,-0.019337892532348633
1773573126522489900,10.15748974609375,0.05435466766357422,0.033888399600982666,-0.009900659322738647
1773573126532631600,10.167631591796875,0.020479202270507812,0.005250215530395508,-0.028663992881774902
1773573126542781400,10.177781494140625,-0.045769691467285156,0.009945511817932129,-0.009862363338470459
1773573126552948700,10.18794873046875,-0.02143573760986328,0.028688430786132812,0.008208036422729492
1773573126563100400,10.198100341796875,0.026027679443359375,0.004745304584503174,0.0026362836360931396
1773573126573238000,10.208238037109375,0.03502464294433594,0.00003552436828613281,-0.021468132734298706
1773573126583388200,10.21838818359375,-0.007905006408691406,0.014127016067504883,-0.01721683144569397
1773573126593550300,10.22855029296875,-0.01714611053466797,0.009044945240020752,0.010401427745819092
1773573126603702000,10.238701904296875,-0.016843795776367188,-0.005265355110168457,0.009829312562942505
1773573126613835000,10.2488349609375,0.002277374267578125,-0.014416754245758057,-0.009678453207015991
1773573126623984600,10.258984619140625,0.006977081298828125,0.00944066047668457,-0.0010266900062561035
1773573126634136800,10.26913671875,-0.007231712341308594,-0.0000635385513305664,0.007384151220321655
1773573126644286700,10.27928662109375,-0.016488075256347656,0.018846094608306885,0.006022065877914429
1773573126654440000,10.28943994140625,-0.0020475387573242188,-0.009637534618377686,0.009375572204589844
1773573126664590000,10.299590087890625,-0.0019769668579101562,0.000022232532501220703,0.017486244440078735
1773573126674748400,10.30974853515625,0.0027790069580078125,0.009617447853088379,0.0023498833179473877
1773573126684899600,10.319899658203125,-0.0019540786743164062,0.00011807680130004883,0.020418763160705566
1773573126695052800,10.330052734375,-0.03013134002685547,0.0048026442527771,0.009614825248718262
1773573126705204000,10.340203857421875,-0.006033897399902344,0.00930112600326538,-0.0058138370513916016
1773573126715337700,10.350337646484375,0.012966156005859375,0.00430375337600708,0.0069641172885894775
1773573126725487400,10.3604873046875,0.03164196014404297,0.008910715579986572,0.014818280935287476
1773573126735643000,10.370642822265625,0.031144142150878906,-0.019411087036132812,-0.005197972059249878
1773573126745793000,10.38079296875,-0.030529022216796875,-0.00038319826126098633,-0.020483821630477905
1773573126755955500,10.39095556640625,-0.03467082977294922,-0.00040268898010253906,0.0019439756870269775
1773573126766107000,10.40110693359375,-0.01993274688720703,0.018512606620788574,0.019715100526809692
1773573126776256800,10.4112568359375,-0.01486968994140625,0.013673722743988037,-0.0003744363784790039
1773573126786408000,10.421407958984375,0.008939743041992188,0.013624131679534912,-0.010607987642288208
1773573126796566000,10.43156591796875,0.03706836700439453,-0.014776170253753662,0.007572293281555176
1773573126806718000,10.441718017578125,0.022332191467285156,-0.009534895420074463,0.0020111799240112305
1773573126816847000,10.45184716796875,0.03609657287597656,0.019061684608459473,0.006057769060134888
1773573126826996700,10.461996826171875,0.06847286224365234,0.013909578323364258,0.019869118928909302
1773573126837144800,10.472144775390625,0.03906536102294922,-0.0005820393562316895,0.020172446966171265
1773573126847294200,10.482294189453125,-0.03695392608642578,0.004002273082733154,0.016178637742996216
1773573126857448400,10.492448486328126,-0.0740213394165039,-0.0009029507637023926,-0.0022981762886047363
1773573126867598300,10.502598388671874,-0.05395984649658203,0.022525131702423096,0.026410341262817383
1773573126877752800,10.5127529296875,-0.0154266357421875,0.012702643871307373,-0.0013342499732971191
1773573126887903200,10.5229033203125,0.017751693725585938,0.0030478835105895996,-0.014394700527191162
1773573126898060500,10.533060546875,0.03626728057861328,-0.006341814994812012,0.005098491907119751
1773573126908211700,10.543211669921876,0.054467201232910156,0.00325930118560791,0.010348975658416748
1773573126918352600,10.5533525390625,0.025234222412109375,0.012800276279449463,-0.011796414852142334
1773573126928502800,10.563502685546876,-0.03176307678222656,-0.0106736421585083,-0.01494508981704712
1773573126938653400,10.5736533203125,0.01583099365234375,-0.001004338264465332,-0.00014379620552062988
1773573126948803600,10.583803466796875,0.048480987548828125,-0.0011215806007385254,0.03899472951889038
1773573126958959900,10.5939599609375,0.04285907745361328,0.01770550012588501,-0.010634779930114746
1773573126969110500,10.604110595703125,-0.009730339050292969,0.007863104343414307,-0.03160339593887329
1773573126979253500,10.61425341796875,-0.009613990783691406,0.007390081882476807,0.017892003059387207
1773573126989403400,10.6244033203125,0.013981819152832031,-0.011701464653015137,0.034852951765060425
1773573126999575600,10.634575439453124,-0.005222320556640625,0.007297992706298828,0.00036966800689697266
1773573127009727700,10.644727783203125,0.02770519256591797,0.0023298263549804688,0.003921985626220703
1773573127019857000,10.65485693359375,0.003589630126953125,-0.01668095588684082,-0.002217799425125122
1773573127030006800,10.6650068359375,0.022253990173339844,-0.007131040096282959,-0.0035244226455688477
1773573127040171000,10.6751708984375,-0.015909194946289062,-0.0119704008102417,-0.018304437398910522
1773573127050322400,10.685322509765625,-0.043979644775390625,-0.012228429317474365,-0.01934230327606201
1773573127060461300,10.69546142578125,-0.015067100524902344,0.015870511531829834,-0.01617094874382019
1773573127070611200,10.705611083984374,0.032143592834472656,-0.012693405151367188,0.016146987676620483
1773573127080781800,10.71578173828125,0.0031919479370117188,0.010905444622039795,0.006920933723449707
1773573127090934000,10.72593408203125,-0.015839576721191406,0.0010473132133483887,0.016361355781555176
1773573127101073400,10.736073486328126,0.026679039001464844,0.014793038368225098,0.03945210576057434
1773573127111224300,10.746224365234376,0.05902576446533203,0.02842038869857788,0.053980469703674316
1773573127121372400,10.756372314453126,0.024858474731445312,0.004044830799102783,0.004435807466506958
1773573127131522800,10.766522705078126,-0.0040454864501953125,0.003403961658477783,-0.0289936363697052
1773573127141665800,10.776665771484375,-0.013621330261230469,0.0216062068939209,-0.014882981777191162
1773573127151815700,10.786815673828125,-0.023056983947753906,0.01638209819793701,-0.05761630833148956
1773573127161967000,10.796967041015625,0.03359794616699219,-0.007166087627410889,-0.020855605602264404
1773573127172117000,10.807116943359375,0.00457000732421875,-0.0022895336151123047,0.0249483585357666
1773573127182272000,10.81727197265625,-0.01924896240234375,0.0022980570793151855,0.004281222820281982
1773573127192422400,10.82742236328125,0.0185394287109375,0.0022136569023132324,-0.006651178002357483
1773573127202582500,10.83758251953125,0.03214454650878906,-0.01608288288116455,-0.06571510434150696
1773573127212734000,10.84773388671875,0.04557609558105469,0.00840216875076294,-0.07899080216884613
1773573127222870300,10.857870361328125,0.044727325439453125,0.03247612714767456,-0.024224191904067993
1773573127233020200,10.868020263671875,0.025054931640625,0.023703455924987793,0.01877915859222412
1773573127243175700,10.87817578125,0.09512710571289062,-0.0034439563751220703,0.0384611040353775
1773573127253326000,10.888326171875,0.11688899993896484,-0.006588757038116455,0.06970995664596558
1773573127263489800,10.89848974609375,0.03939628601074219,-0.0007831454277038574,0.08850967884063721
1773573127273641500,10.908641357421875,-0.032074928283691406,0.004195272922515869,0.05675923824310303
1773573127283794700,10.918794677734375,-0.026990890502929688,-0.0009534955024719238,-0.010975271463394165
1773573127293946600,10.928946533203124,0.010973930358886719,-0.00601959228515625,-0.006833568215370178
1773573127304091600,10.939091552734375,0.07176780700683594,-0.033923566341400146,-0.014680802822113037
1773573127314242800,10.949242919921875,0.08905792236328125,-0.041697025299072266,-0.03284245729446411
1773573127324395000,10.95939501953125,0.016524314880371094,-0.03878146409988403,0.01588667929172516
1773573127334546400,10.96954638671875,-0.05482769012451172,-0.05831766128540039,0.028705134987831116
1773573127344692200,10.979692138671876,-0.09674835205078125,-0.0014693737030029297,0.0206424742937088
1773573127354843000,10.9898427734375,-0.10031414031982422,0.02669757604598999,0.026164934039115906
1773573127364995600,10.99999560546875,-0.12262630462646484,0.04027169942855835,-0.0733359083533287
1773573127375146800,11.010146728515625,-0.12566184997558594,0.10532313585281372,-0.12896007299423218
1773573127385301200,11.02030126953125,-0.03442573547363281,0.09878873825073242,-0.09922811388969421
1773573127395395600,11.0303955078125,0.11178016662597656,0.00289154052734375,-0.021575577557086945
1773573127405550800,11.04055078125,0.08124160766601562,-0.0671994686126709,0.026245832443237305
1773573127415702000,11.050701904296876,0.16410446166992188,-0.09207570552825928,0.1443011462688446
1773573127425872600,11.06087255859375,0.2736396789550781,-0.024349212646484375,0.2581543028354645
1773573127435992800,11.070992919921874,0.12213420867919922,0.03589606285095215,0.17385616898536682
1773573127456295400,11.09129541015625,-0.17359256744384766,0.22039848566055298,-0.2066614180803299
1773573127466493200,11.1014931640625,-0.1292409896850586,0.1549815535545349,-0.16082903742790222
1773573127476648000,11.11164794921875,0.056018829345703125,-0.09322738647460938,-0.06565827131271362
1773573127486787600,11.12178759765625,-0.039318084716796875,-0.05937802791595459,-0.056073449552059174
1773573127496941000,11.131941162109374,-0.18941974639892578,-0.0192795991897583,-0.03880945220589638
1773573127507097000,11.14209716796875,-0.19576644897460938,-0.06010711193084717,-0.0992080569267273
1773573127517250800,11.152250732421875,-0.17382431030273438,-0.08508890867233276,-0.19652563333511353
1773573127527396600,11.162396728515626,-0.0910940170288086,-0.019153952598571777,-0.08407369256019592
1773573127537549600,11.172549560546875,0.07030677795410156,-0.010506033897399902,-0.010537156835198402
1773573127547690500,11.1826904296875,0.1725921630859375,-0.0354880690574646,0.020207148045301437
1773573127557842200,11.19284228515625,0.18845844268798828,0.020100891590118408,0.0930941104888916
1773573127568002300,11.203002197265626,0.08630847930908203,0.07110106945037842,0.04075584560632706
1773573127578154800,11.21315478515625,-0.02367401123046875,0.07185095548629761,-0.02313149720430374
1773573127588296000,11.2232958984375,-0.01901531219482422,0.043264925479888916,0.057117849588394165
1773573127598447400,11.233447265625,-0.00052642822265625,0.14133328199386597,0.21485409140586853
1773573127608597000,11.243596923828125,0.036322593688964844,0.02427154779434204,0.08033248782157898
1773573127618748400,11.25374853515625,0.14780044555664062,-0.056005269289016724,-0.05413288623094559
1773573127628908000,11.263907958984374,0.1208353042602539,-0.04481646418571472,-0.07489478588104248
1773573127639060200,11.274060302734375,0.04253673553466797,0.003964811563491821,-0.04650609940290451
1773573127649215200,11.28421533203125,-0.025025367736816406,0.01950782537460327,-0.02781468629837036
1773573127659367700,11.29436767578125,-0.07262420654296875,-0.03521150350570679,-0.10738902539014816
1773573127669502700,11.304502685546876,-0.1618194580078125,0.015585005283355713,-0.04325888305902481
1773573127679653400,11.3146533203125,-0.20712947845458984,0.005712658166885376,-0.057422325015068054
1773573127689784800,11.324784912109376,-0.07738590240478516,-0.07833635807037354,-0.1980612426996231
1773573127699933400,11.334933349609376,0.05032539367675781,-0.05273503065109253,-0.11457198113203049
1773573127710111200,11.345111328125,0.09131431579589844,0.008926212787628174,0.0394798219203949
1773573127720263000,11.355262939453125,0.023436546325683594,0.12945407629013062,0.09662847220897675
1773573127730417400,11.36541748046875,0.02264404296875,0.030866146087646484,0.08919225633144379
1773573127740569300,11.3755693359375,0.20549869537353516,-0.0432610809803009,0.08583861589431763
1773573127750713300,11.38571337890625,0.2675294876098633,-0.07515129446983337,0.1461624652147293
1773573127760864500,11.395864501953126,0.17778873443603516,-0.07586252689361572,0.13321267068386078
1773573127771007000,11.406007080078124,0.047217369079589844,0.005233645439147949,0.03333449363708496
1773573127781157400,11.416157470703125,0.02724456787109375,0.05841487646102905,0.008163630962371826
1773573127791314700,11.426314697265624,-0.029920578002929688,0.17840665578842163,0.14843332767486572
1773573127801465600,11.436465576171875,0.05997753143310547,0.06374801695346832,0.02114945650100708
1773573127811605500,11.44660546875,0.18610286712646484,-0.06503411382436752,0.0031520724296569824
1773573127821755400,11.45675537109375,0.16882038116455078,-0.0990641713142395,0.017989903688430786
1773573127831905300,11.4669052734375,0.09993839263916016,-0.11932742595672607,-0.11193129420280457
1773573127842055200,11.47705517578125,0.06508922576904297,-0.11127636581659317,-0.1870812028646469
1773573127852207900,11.487207763671876,-0.02099323272705078,-0.060831472277641296,-0.13115745782852173
1773573127862358000,11.49735791015625,-0.03029918670654297,-0.048134662210941315,-0.02346193790435791
1773573127872514600,11.5075146484375,-0.006508827209472656,-0.034588612616062164,0.01515883207321167
1773573127882665200,11.517665283203126,-0.034946441650390625,0.07018812000751495,-0.04408230260014534
1773573127892813300,11.527813232421876,-0.14765262603759766,0.14297784864902496,-0.05881316587328911
1773573127902964000,11.5379638671875,-0.12185382843017578,0.0948483943939209,-0.08730759471654892
1773573127913116000,11.548115966796875,-0.01635265350341797,0.07326317578554153,-0.047721054404973984
1773573127923266600,11.5582666015625,0.11101150512695312,0.08636529743671417,0.08350160717964172
1773573127933422300,11.56842236328125,0.1798381805419922,0.11454737931489944,0.09118267148733139
1773573127943573500,11.578573486328125,0.1487407684326172,0.0020582228899002075,-0.0037070587277412415
1773573127953706000,11.5887060546875,0.18884754180908203,-0.09811457246541977,0.035714492201805115
1773573127963855000,11.598855224609375,0.3271493911743164,-0.13482855260372162,0.057878121733665466
1773573127974019000,11.60901904296875,0.2701129913330078,-0.1896253377199173,-0.19633907079696655
1773573127984169700,11.619169677734375,0.06349658966064453,-0.10654018819332123,-0.21173401176929474
1773573127994318600,11.629318603515625,-0.03123760223388672,-0.02808806672692299,-0.1349812000989914
1773573128004469200,11.63946923828125,-0.02551746368408203,0.027122506871819496,-0.10647283494472504
1773573128014617900,11.649617919921875,0.027008056640625,0.13436217606067657,-0.01870770752429962
1773573128024768000,11.65976806640625,-0.015715599060058594,0.15051624178886414,0.02895660698413849
1773573128034933500,11.66993359375,-0.006138801574707031,0.11814180761575699,0.0700141042470932
1773573128045085400,11.68008544921875,0.12082576751708984,0.07825011014938354,0.05397476255893707
1773573128055217700,11.6902177734375,0.15613651275634766,0.05301345884799957,-0.0238020122051239
1773573128065367600,11.700367431640625,0.14841270446777344,0.03678133338689804,-0.0927015095949173
1773573128075523800,11.71052392578125,0.18315696716308594,-0.027648717164993286,-0.17795413732528687
1773573128085674500,11.720674560546875,0.31154346466064453,-0.06015333533287048,-0.142361581325531
1773573128095823600,11.73082373046875,0.3579139709472656,-0.014561668038368225,0.07114221900701523
1773573128105974000,11.74097412109375,0.3990745544433594,0.018696218729019165,0.27119728922843933
1773573128116124700,11.751124755859376,0.4209918975830078,0.045460816472768784,0.3455401659011841
1773573128126275300,11.761275390625,0.3580141067504883,0.05699089169502258,0.28339266777038574
1773573128136433200,11.77143310546875,0.3104085922241211,0.11078456044197083,0.19939450919628143
1773573128146584600,11.78158447265625,0.3155355453491211,0.13590842485427856,0.23611116409301758
1773573128156737000,11.791737060546875,0.3206920623779297,0.18089835345745087,0.20812824368476868
1773573128166888200,11.80188818359375,0.2364044189453125,0.19488918781280518,0.10653680562973022
1773573128177039000,11.8120390625,0.13955402374267578,0.17530018091201782,0.04286697506904602
1773573128187190500,11.8221904296875,0.05391979217529297,0.1195729523897171,0.04747414588928223
1773573128197333200,11.832333251953125,-0.0679464340209961,-0.021704480051994324,0.051133424043655396
1773573128207483600,11.842483642578125,-0.1315460205078125,-0.057137638330459595,0.08154469728469849
1773573128217626000,11.852626220703126,-0.24165630340576172,-0.04320409893989563,0.10758933424949646
1773573128227775700,11.862775634765624,-0.2985506057739258,-0.0599750280380249,0.07855576276779175
1773573128237943800,11.87294384765625,-0.39241600036621094,-0.12115320563316345,-0.06140756607055664
1773573128248095200,11.88309521484375,-0.5225028991699219,-0.06067776679992676,-0.2021893858909607
1773573128258228200,11.893228271484375,-0.5986166000366211,0.053835660219192505,-0.23042719066143036
1773573128268377900,11.9033779296875,-0.5980348587036133,0.07078301906585693,-0.2915525436401367
1773573128278535700,11.91353564453125,-0.5783472061157227,-0.02277076244354248,-0.36514022946357727
1773573128288686000,11.92368603515625,-0.3889760971069336,-0.07588189840316772,-0.26876819133758545
1773573128298834200,11.933834228515625,-0.1363239288330078,-0.11972373723983765,-0.03290429711341858
1773573128308984300,11.943984375,0.05125141143798828,-0.10607977211475372,0.16963165998458862
1773573128319141000,11.95414111328125,0.2216930389404297,-0.09975406527519226,0.16611206531524658
1773573128329292000,11.9642919921875,0.3561849594116211,-0.07894554734230042,0.04370540380477905
1773573128339443700,11.974443603515626,0.4503641128540039,-0.03124260902404785,-0.0048056840896606445
1773573128349594600,11.9845947265625,0.48589038848876953,-0.019293397665023804,-0.11113721132278442
1773573128359733800,11.994733642578124,0.5200710296630859,-0.0040833353996276855,0.12748008966445923
1773573128369883600,12.004883544921874,0.4634113311767578,-0.04095403850078583,0.37156611680984497
1773573128380035800,12.015035888671875,0.2938823699951172,-0.0711112841963768,0.3201627731323242
1773573128390186000,12.02518603515625,0.12652301788330078,-0.06458590924739838,0.09487247467041016
1773573128400343300,12.03534326171875,0.18752098083496094,-0.10538708418607712,-0.052748411893844604
1773573128410494000,12.045493896484375,-0.0070514678955078125,0.0609256774187088,0.07591715455055237
1773573128420637700,12.0556376953125,-0.16046428680419922,0.20459970831871033,0.0038028359413146973
1773573128430787800,12.065787841796874,-0.2307586669921875,0.15666238963603973,0.05257892608642578
1773573128440931300,12.075931396484375,-0.2991476058959961,0.1040118932723999,0.09018038213253021
1773573128451080700,12.086080810546875,-0.37023258209228516,0.050682395696640015,0.043569132685661316
1773573128461260800,12.0962607421875,-0.4627571105957031,0.05308690667152405,-0.04036128893494606
1773573128471413200,12.106413330078125,-0.6517620086669922,0.031078338623046875,-0.0428401380777359
1773573128481564000,12.11656396484375,-0.855992317199707,-0.22577248513698578,-0.0018193423748016357
1773573128491716000,12.126716064453126,-0.8689041137695312,-0.500514566898346,0.06118917465209961
1773573128501828600,12.13682861328125,-0.8591108322143555,-0.4903535842895508,0.12556011974811554
1773573128511977000,12.14697705078125,-0.9207239151000977,-0.2846621572971344,0.18341486155986786
1773573128522176300,12.15717626953125,-0.7880830764770508,-0.12275917828083038,0.19906988739967346
1773573128532329700,12.167329833984375,-0.7651844024658203,0.2436964511871338,-0.2750227749347687
1773573128542465000,12.177465087890624,-0.6616125106811523,0.2447873055934906,-0.6094406843185425
1773573128552616700,12.18761669921875,-0.3183631896972656,-0.02442854642868042,-0.5486289262771606
1773573128562770000,12.19777001953125,0.200103759765625,-0.23520725965499878,0.004251211881637573
1773573128572921600,12.207921630859374,0.5062017440795898,-0.2163034826517105,0.21849095821380615
1773573128583071200,12.2180712890625,0.3543872833251953,0.12028476595878601,-0.03599894046783447
1773573128593222700,12.22822265625,0.4384908676147461,0.14835351705551147,-0.10395091772079468
1773573128603371800,12.238371826171875,0.5651044845581055,0.011395543813705444,-0.21271097660064697
1773573128613523000,12.24852294921875,0.5345172882080078,0.057984769344329834,-0.04215538501739502
1773573128623671000,12.258671142578125,0.4710988998413086,0.06127732992172241,0.21844053268432617
1773573128633822000,12.268822021484375,0.5400161743164062,0.009662985801696777,0.32388198375701904
1773573128643971000,12.27897119140625,0.9541635513305664,0.161021888256073,0.7183579206466675
1773573128654121700,12.289121826171876,1.1140508651733398,0.666759729385376,1.2335491180419922
1773573128664266200,12.299266357421875,0.9945211410522461,0.9521291851997375,1.0805034637451172
1773573128674416400,12.30941650390625,0.8894195556640625,0.6410713791847229,0.47291994094848633
1773573128684561400,12.3195615234375,0.5817604064941406,0.11005419492721558,-0.09989142417907715
1773573128694711000,12.3297109375,0.14022445678710938,-0.1253548264503479,-0.15629220008850098
1773573128704872000,12.339871826171875,-0.19126319885253906,-0.19138449430465698,0.05209553241729736
1773573128715022600,12.350022705078125,-0.48506832122802734,-0.14947563409805298,0.09262990951538086
